session,group,date,expName,psychopyVersion,OS,frameRate,participant,expt,status,key_resp.keys,key_resp.rt,key_resp_5.keys,key_resp_5.rt,key_resp_2.keys,key_resp_2.corr,key_resp_2.rt,trials.thisRepN,trials.thisTrialN,trials.thisN,trials.thisIndex,trials.ran,Word,WordClass,FilePath,Target,Foil,TargetPositionX,TargetPositionY,FoilPositionX,FoilPositionY,CorrectKey,textbox.text,enter.keys,enter.rt,textbox_2.text,enter_2.keys,enter_2.rt,textbox_3.text,enter_3.keys,enter_3.rt,textbox_4.text,enter_4.keys,enter_4.rt,slider.response,slider.rt,key_resp_3.keys,key_resp_3.rt,slider_2.response,slider_2.rt,key_resp_4.keys,key_resp_4.rt
68312,4,2023-10-04_09h41.47.278,e1,2022.2.5,Win32,60.12144532,100,264,pilot,,,,,,,,,,,,,,,,,,,,,,,,,,,,,,,,,,,,,,,,,,
68312,4,2023-10-04_09h41.47.278,e1,2022.2.5,Win32,60.12144532,100,264,pilot,k,24.9031,,,,,,,,,,,,,,,,,,,,,,,,,,,,,,,,,,,,,,,,
68312,4,2023-10-04_09h41.47.278,e1,2022.2.5,Win32,60.12144532,100,264,pilot,,,k,3.3633,,,,,,,,,,,,,,,,,,,,,,,,,,,,,,,,,,,,,,
68312,4,2023-10-04_09h41.47.278,e1,2022.2.5,Win32,60.12144532,100,264,pilot,,,,,s,1,3.4369,0,0,0,0,1,Left,AttentionCheck,Check_Left.mp3,to compare,to trust,-0.3,0,0.3,0,s,,,,,,,,,,,,,,,,,,,,
68312,4,2023-10-04_09h41.47.278,e1,2022.2.5,Win32,60.12144532,100,264,pilot,,,,,k,0,2.6198,0,1,1,1,1,fukameru,Verb,079-fukameru.mp3,to deepen,to call,-0.3,0,0.3,0,s,,,,,,,,,,,,,,,,,,,,
68312,4,2023-10-04_09h41.47.278,e1,2022.2.5,Win32,60.12144532,100,264,pilot,,,,,s,0,2.1364,0,2,2,2,1,tsuyoi,Adj,018-tsuyoi.mp3,strong,dark,0.3,0,-0.3,0,k,,,,,,,,,,,,,,,,,,,,
68312,4,2023-10-04_09h41.47.278,e1,2022.2.5,Win32,60.12144532,100,264,pilot,,,,,k,1,2.0871,0,3,3,3,1,majimena,Adj,010-majimena.mp3,serious,equal,0.3,0,-0.3,0,k,,,,,,,,,,,,,,,,,,,,
68312,4,2023-10-04_09h41.47.278,e1,2022.2.5,Win32,60.12144532,100,264,pilot,,,,,k,0,1.4544,0,4,4,4,1,kuchi,Noun,067-kuchi.mp3,mouth,flower,-0.3,0,0.3,0,s,,,,,,,,,,,,,,,,,,,,
68312,4,2023-10-04_09h41.47.278,e1,2022.2.5,Win32,60.12144532,100,264,pilot,,,,,s,0,2.1605,0,5,5,5,1,kasaneru,Verb,100-kasaneru.mp3,to stack,to go,0.3,0,-0.3,0,k,,,,,,,,,,,,,,,,,,,,
68312,4,2023-10-04_09h41.47.278,e1,2022.2.5,Win32,60.12144532,100,264,pilot,,,,,s,1,3.667,0,6,6,6,1,matomeru,Verb,095-matomeru.mp3,to summarize,to show,-0.3,0,0.3,0,s,,,,,,,,,,,,,,,,,,,,
68312,4,2023-10-04_09h41.47.278,e1,2022.2.5,Win32,60.12144532,100,264,pilot,,,,,k,0,4.9672,0,7,7,7,1,mijikana,Adj,003-mijikana.mp3,familiar,awkward,-0.3,0,0.3,0,s,,,,,,,,,,,,,,,,,,,,
68312,4,2023-10-04_09h41.47.278,e1,2022.2.5,Win32,60.12144532,100,264,pilot,,,,,k,1,4.1682,0,8,8,8,1,mizu,Noun,060-mizu.mp3,water,land,0.3,0,-0.3,0,k,,,,,,,,,,,,,,,,,,,,
68312,4,2023-10-04_09h41.47.278,e1,2022.2.5,Win32,60.12144532,100,264,pilot,,,,,k,1,3.1477,0,9,9,9,1,mitsumeru,Verb,088-mitsumeru.mp3,to stare,to pull,0.3,0,-0.3,0,k,,,,,,,,,,,,,,,,,,,,
68312,4,2023-10-04_09h41.47.278,e1,2022.2.5,Win32,60.12144532,100,264,pilot,,,,,k,1,5.6346,0,10,10,10,1,kebakeba,Mim,040-kebakeba.mp3,too much makeup,sound of something little falling or moving,0.3,0,-0.3,0,k,,,,,,,,,,,,,,,,,,,,
68312,4,2023-10-04_09h41.47.278,e1,2022.2.5,Win32,60.12144532,100,264,pilot,,,,,k,0,4.2088,0,11,11,11,1,tegaruna,Adj,002-tegaruna.mp3,simple,pure,-0.3,0,0.3,0,s,,,,,,,,,,,,,,,,,,,,
68312,4,2023-10-04_09h41.47.278,e1,2022.2.5,Win32,60.12144532,100,264,pilot,,,,,s,0,6.0083,0,12,12,12,1,mamoru,Verb,098-mamoru.mp3,to protect,to look up,0.3,0,-0.3,0,k,,,,,,,,,,,,,,,,,,,,
68312,4,2023-10-04_09h41.47.278,e1,2022.2.5,Win32,60.12144532,100,264,pilot,,,,,k,1,3.2426,0,13,13,13,1,Right,AttentionCheck,Check_Right.mp3,shape,body,0.3,0,-0.3,0,k,,,,,,,,,,,,,,,,,,,,
68312,4,2023-10-04_09h41.47.278,e1,2022.2.5,Win32,60.12144532,100,264,pilot,,,,,k,1,3.1991,0,14,14,14,1,harari,Mim,045-harari.mp3,gently falling,wander,0.3,0,-0.3,0,k,,,,,,,,,,,,,,,,,,,,
68312,4,2023-10-04_09h41.47.278,e1,2022.2.5,Win32,60.12144532,100,264,pilot,,,,,k,1,3.7285,0,15,15,15,1,hiyohiyo,Mim,028-hiyohiyo.mp3,"moving like a chick, chick-like",sound of something making firm contact with a flat surface,0.3,0,-0.3,0,k,,,,,,,,,,,,,,,,,,,,
68312,4,2023-10-04_09h41.47.278,e1,2022.2.5,Win32,60.12144532,100,264,pilot,,,,,k,0,3.5925,0,16,16,16,1,noru,Verb,093-noru.mp3,to get on,to jump,-0.3,0,0.3,0,s,,,,,,,,,,,,,,,,,,,,
68312,4,2023-10-04_09h41.47.278,e1,2022.2.5,Win32,60.12144532,100,264,pilot,,,,,k,0,5.057,0,17,17,17,1,karari,Mim,026-karari.mp3,dry,"downheartedly, dejectedly",-0.3,0,0.3,0,s,,,,,,,,,,,,,,,,,,,,
68312,4,2023-10-04_09h41.47.278,e1,2022.2.5,Win32,60.12144532,100,264,pilot,,,,,k,0,3.0205,0,18,18,18,1,pekon,Mim,030-pekon.mp3,bowing lightly and casually,with a bang,-0.3,0,0.3,0,s,,,,,,,,,,,,,,,,,,,,
68312,4,2023-10-04_09h41.47.278,e1,2022.2.5,Win32,60.12144532,100,264,pilot,,,,,k,1,3.6496,0,19,19,19,1,kotoshi,Noun,064-kotoshi.mp3,this year,long time ago,0.3,0,-0.3,0,k,,,,,,,,,,,,,,,,,,,,
68312,4,2023-10-04_09h41.47.278,e1,2022.2.5,Win32,60.12144532,100,264,pilot,,,,,s,0,4.3971,0,20,20,20,1,futsufutsu,Mim,047-futsufutsu.mp3,simmer,"with a flash, brightly, dazzlingly",0.3,0,-0.3,0,k,,,,,,,,,,,,,,,,,,,,
68312,4,2023-10-04_09h41.47.278,e1,2022.2.5,Win32,60.12144532,100,264,pilot,,,,,k,1,2.7421,0,21,21,21,1,marena,Adj,005-marena.mp3,rare,white,0.3,0,-0.3,0,k,,,,,,,,,,,,,,,,,,,,
68312,4,2023-10-04_09h41.47.278,e1,2022.2.5,Win32,60.12144532,100,264,pilot,,,,,k,0,3.493,0,22,22,22,1,wasureru,Verb,085-wasureru.mp3,to forget,to spread,-0.3,0,0.3,0,s,,,,,,,,,,,,,,,,,,,,
68312,4,2023-10-04_09h41.47.278,e1,2022.2.5,Win32,60.12144532,100,264,pilot,,,,,s,0,3.604,0,23,23,23,1,sakana,Noun,057-sakana.mp3,fish,wife,0.3,0,-0.3,0,k,,,,,,,,,,,,,,,,,,,,
68312,4,2023-10-04_09h41.47.278,e1,2022.2.5,Win32,60.12144532,100,264,pilot,,,,,s,0,4.2017,0,24,24,24,1,yutakana,Adj,014-yutakana.mp3,rich,early,0.3,0,-0.3,0,k,,,,,,,,,,,,,,,,,,,,
68312,4,2023-10-04_09h41.47.278,e1,2022.2.5,Win32,60.12144532,100,264,pilot,,,,,k,0,3.108,0,25,25,25,1,katsukatsu,Mim,033-katsukatsu.mp3,"barely, scraping by",restless,-0.3,0,0.3,0,s,,,,,,,,,,,,,,,,,,,,
68312,4,2023-10-04_09h41.47.278,e1,2022.2.5,Win32,60.12144532,100,264,pilot,,,,,s,0,5.2913,0,26,26,26,1,kagiri,Noun,061-kagiri.mp3,limit,past,0.3,0,-0.3,0,k,,,,,,,,,,,,,,,,,,,,
68312,4,2023-10-04_09h41.47.278,e1,2022.2.5,Win32,60.12144532,100,264,pilot,,,,,k,1,3.6186,0,27,27,27,1,betsuna,Adj,006-betsuna.mp3,another,old,0.3,0,-0.3,0,k,,,,,,,,,,,,,,,,,,,,
68312,4,2023-10-04_09h41.47.278,e1,2022.2.5,Win32,60.12144532,100,264,pilot,,,,,s,0,4.5352,0,28,28,28,1,hoka,Noun,075-hoka.mp3,other,letter (as in mail),0.3,0,-0.3,0,k,,,,,,,,,,,,,,,,,,,,
68312,4,2023-10-04_09h41.47.278,e1,2022.2.5,Win32,60.12144532,100,264,pilot,,,,,k,0,2.5971,0,29,29,29,1,busuri,Mim,035-busuri.mp3,sound of stabbing,messy,-0.3,0,0.3,0,s,,,,,,,,,,,,,,,,,,,,
68312,4,2023-10-04_09h41.47.278,e1,2022.2.5,Win32,60.12144532,100,264,pilot,,,,,k,0,6.8033,0,30,30,30,1,kasanaru,Verb,087-kasanaru.mp3,to overlap,to speak to oneself in a quiet voice,-0.3,0,0.3,0,s,,,,,,,,,,,,,,,,,,,,
68312,4,2023-10-04_09h41.47.278,e1,2022.2.5,Win32,60.12144532,100,264,pilot,,,,,s,1,2.1534,0,31,31,31,1,yume,Noun,062-yume.mp3,dream,festival,-0.3,0,0.3,0,s,,,,,,,,,,,,,,,,,,,,
68312,4,2023-10-04_09h41.47.278,e1,2022.2.5,Win32,60.12144532,100,264,pilot,,,,,k,0,4.2352,0,32,32,32,1,debudebu,Mim,037-debudebu.mp3,fat,empty,-0.3,0,0.3,0,s,,,,,,,,,,,,,,,,,,,,
68312,4,2023-10-04_09h41.47.278,e1,2022.2.5,Win32,60.12144532,100,264,pilot,,,,,s,1,3.3336,0,33,33,33,1,hanashi,Noun,055-hanashi.mp3,conversation,one,-0.3,0,0.3,0,s,,,,,,,,,,,,,,,,,,,,
68312,4,2023-10-04_09h41.47.278,e1,2022.2.5,Win32,60.12144532,100,264,pilot,,,,,s,0,4.9949,0,34,34,34,1,machigau,Verb,082-machigau.mp3,to wrong,to start,0.3,0,-0.3,0,k,,,,,,,,,,,,,,,,,,,,
68312,4,2023-10-04_09h41.47.278,e1,2022.2.5,Win32,60.12144532,100,264,pilot,,,,,s,1,1.8995,0,35,35,35,1,yomu,Verb,091-yomu.mp3,to read,to consist,-0.3,0,0.3,0,s,,,,,,,,,,,,,,,,,,,,
68312,4,2023-10-04_09h41.47.278,e1,2022.2.5,Win32,60.12144532,100,264,pilot,,,,,k,0,2.6858,0,36,36,36,1,sadameru,Verb,096-sadameru.mp3,to define,to escape,-0.3,0,0.3,0,s,,,,,,,,,,,,,,,,,,,,
68312,4,2023-10-04_09h41.47.278,e1,2022.2.5,Win32,60.12144532,100,264,pilot,,,,,s,1,3.1585,0,37,37,37,1,nakama,Noun,066-nakama.mp3,friend,vicinity,-0.3,0,0.3,0,s,,,,,,,,,,,,,,,,,,,,
68312,4,2023-10-04_09h41.47.278,e1,2022.2.5,Win32,60.12144532,100,264,pilot,,,,,s,1,13.1506,0,38,38,38,1,gakun,Mim,039-gakun.mp3,dropping one's head or shoulders,"soft and limp; or mumbling, talking with food in mouth",-0.3,0,0.3,0,s,,,,,,,,,,,,,,,,,,,,
68312,4,2023-10-04_09h41.47.278,e1,2022.2.5,Win32,60.12144532,100,264,pilot,,,,,s,1,5.5596,0,39,39,39,1,nosori,Mim,027-nosori.mp3,sluggishly,spontaneously,-0.3,0,0.3,0,s,,,,,,,,,,,,,,,,,,,,
68312,4,2023-10-04_09h41.47.278,e1,2022.2.5,Win32,60.12144532,100,264,pilot,,,,,k,1,6.7831,0,40,40,40,1,jimoto,Noun,058-jimoto.mp3,local,letter (as in alphabet),0.3,0,-0.3,0,k,,,,,,,,,,,,,,,,,,,,
68312,4,2023-10-04_09h41.47.278,e1,2022.2.5,Win32,60.12144532,100,264,pilot,,,,,s,1,5.4112,0,41,41,41,1,haha,Noun,070-haha.mp3,mother,form,-0.3,0,0.3,0,s,,,,,,,,,,,,,,,,,,,,
68312,4,2023-10-04_09h41.47.278,e1,2022.2.5,Win32,60.12144532,100,264,pilot,,,,,k,0,4.9233,0,42,42,42,1,toboshii,Adj,011-toboshii.mp3,poor,disadvantaged,-0.3,0,0.3,0,s,,,,,,,,,,,,,,,,,,,,
68312,4,2023-10-04_09h41.47.278,e1,2022.2.5,Win32,60.12144532,100,264,pilot,,,,,k,1,4.2991,0,43,43,43,1,gusha,Mim,046-gusha.mp3,sound of something being squashed,spongy,0.3,0,-0.3,0,k,,,,,,,,,,,,,,,,,,,,
68312,4,2023-10-04_09h41.47.278,e1,2022.2.5,Win32,60.12144532,100,264,pilot,,,,,k,1,2.5422,0,44,44,44,1,kitanai,Adj,012-kitanai.mp3,dirty,bad at,0.3,0,-0.3,0,k,,,,,,,,,,,,,,,,,,,,
68312,4,2023-10-04_09h41.47.278,e1,2022.2.5,Win32,60.12144532,100,264,pilot,,,,,k,1,4.0741,0,45,45,45,1,nemui,Adj,024-nemui.mp3,sleepy,wide,0.3,0,-0.3,0,k,,,,,,,,,,,,,,,,,,,,
68312,4,2023-10-04_09h41.47.278,e1,2022.2.5,Win32,60.12144532,100,264,pilot,,,,,k,0,3.6504,0,46,46,46,1,namida,Noun,063-namida.mp3,tears,light,-0.3,0,0.3,0,s,,,,,,,,,,,,,,,,,,,,
68312,4,2023-10-04_09h41.47.278,e1,2022.2.5,Win32,60.12144532,100,264,pilot,,,,,s,1,3.6843,0,47,47,47,1,samui,Adj,021-samui.mp3,cold,smelly,-0.3,0,0.3,0,s,,,,,,,,,,,,,,,,,,,,
68312,4,2023-10-04_09h41.47.278,e1,2022.2.5,Win32,60.12144532,100,264,pilot,,,,,s,1,3.5356,0,48,48,48,1,noberu,Verb,078-noberu.mp3,to express,to die,-0.3,0,0.3,0,s,,,,,,,,,,,,,,,,,,,,
68312,4,2023-10-04_09h41.47.278,e1,2022.2.5,Win32,60.12144532,100,264,pilot,,,,,k,1,2.4086,0,49,49,49,1,takumina,Adj,004-takumina.mp3,skillful,flat,0.3,0,-0.3,0,k,,,,,,,,,,,,,,,,,,,,
68312,4,2023-10-04_09h41.47.278,e1,2022.2.5,Win32,60.12144532,100,264,pilot,,,,,,,,,,,,,,,,,,,,,,,42,right,2.0132,,,,,,,,,,,,,,,,,
68312,4,2023-10-04_09h41.47.278,e1,2022.2.5,Win32,60.12144532,100,264,pilot,,,,,,,,,,,,,,,,,,,,,,,,,,male,right,4.429,,,,,,,,,,,,,,
68312,4,2023-10-04_09h41.47.278,e1,2022.2.5,Win32,60.12144532,100,264,pilot,,,,,,,,,,,,,,,,,,,,,,,,,,,,,english,right,4.8153,,,,,,,,,,,
68312,4,2023-10-04_09h41.47.278,e1,2022.2.5,Win32,60.12144532,100,264,pilot,,,,,,,,,,,,,,,,,,,,,,,,,,,,,,,,none,right,3.1132,,,,,,,,
68312,4,2023-10-04_09h41.47.278,e1,2022.2.5,Win32,60.12144532,100,264,pilot,,,,,,,,,,,,,,,,,,,,,,,,,,,,,,,,,,,1,10.649,right,2.4942,,,,
68312,4,2023-10-04_09h41.47.278,e1,2022.2.5,Win32,60.12144532,100,264,pilot,,,,,,,,,,,,,,,,,,,,,,,,,,,,,,,,,,,,,,,1,3.3302,right,1.6718
68312,4,2023-10-04_09h41.47.278,e1,2022.2.5,Win32,60.12144532,100,264,pilot,,,,,,,,,,,,,,,,,,,,,,,,,,,,,,,,,,,,,,,,,,
﻿session,group,date,expName,psychopyVersion,OS,frameRate,participant,expt,status,key_resp.keys,key_resp.rt,key_resp_5.keys,key_resp_5.rt,key_resp_2.keys,key_resp_2.corr,key_resp_2.rt,trials.thisRepN,trials.thisTrialN,trials.thisN,trials.thisIndex,trials.ran,Word,WordClass,FilePath,Target,Foil,TargetPositionX,TargetPositionY,FoilPositionX,FoilPositionY,CorrectKey,textbox.text,enter.keys,enter.rt,textbox_2.text,enter_2.keys,enter_2.rt,textbox_3.text,enter_3.keys,enter_3.rt,textbox_4.text,enter_4.keys,enter_4.rt,slider.response,slider.rt,key_resp_3.keys,key_resp_3.rt,slider_2.response,slider_2.rt,key_resp_4.keys,key_resp_4.rt
68313,100,2023-10-04_09h41.51.954,e1,2022.2.5,Win32,60.03121623,101,264,pilot,,,,,,,,,,,,,,,,,,,,,,,,,,,,,,,,,,,,,,,,,,
68313,100,2023-10-04_09h41.51.954,e1,2022.2.5,Win32,60.03121623,101,264,pilot,s,41.8371,,,,,,,,,,,,,,,,,,,,,,,,,,,,,,,,,,,,,,,,
68313,100,2023-10-04_09h41.51.954,e1,2022.2.5,Win32,60.03121623,101,264,pilot,,,s,8.5876,,,,,,,,,,,,,,,,,,,,,,,,,,,,,,,,,,,,,,
68313,100,2023-10-04_09h41.51.954,e1,2022.2.5,Win32,60.03121623,101,264,pilot,,,,,s,1,4.4564,0,0,0,0,1,Left,AttentionCheck,Check_Left.mp3,to compare,to trust,-0.3,0,0.3,0,s,,,,,,,,,,,,,,,,,,,,
68313,100,2023-10-04_09h41.51.954,e1,2022.2.5,Win32,60.03121623,101,264,pilot,,,,,s,1,6.496,0,1,1,1,1,takumina,Adj,004-takumina.mp3,skillful,early,-0.3,0,0.3,0,s,,,,,,,,,,,,,,,,,,,,
68313,100,2023-10-04_09h41.51.954,e1,2022.2.5,Win32,60.03121623,101,264,pilot,,,,,s,0,2.93,0,2,2,2,1,yume,Noun,062-yume.mp3,dream,long time ago,0.3,0,-0.3,0,k,,,,,,,,,,,,,,,,,,,,
68313,100,2023-10-04_09h41.51.954,e1,2022.2.5,Win32,60.03121623,101,264,pilot,,,,,s,1,2.5394,0,3,3,3,1,kuchi,Noun,067-kuchi.mp3,mouth,friend,-0.3,0,0.3,0,s,,,,,,,,,,,,,,,,,,,,
68313,100,2023-10-04_09h41.51.954,e1,2022.2.5,Win32,60.03121623,101,264,pilot,,,,,k,1,4.0334,0,4,4,4,1,betsuna,Adj,006-betsuna.mp3,another,sleepy,0.3,0,-0.3,0,k,,,,,,,,,,,,,,,,,,,,
68313,100,2023-10-04_09h41.51.954,e1,2022.2.5,Win32,60.03121623,101,264,pilot,,,,,k,1,7.6839,0,5,5,5,1,kotori,Mim,036-kotori.mp3,sound of something little falling or moving,"barely, scraping by",0.3,0,-0.3,0,k,,,,,,,,,,,,,,,,,,,,
68313,100,2023-10-04_09h41.51.954,e1,2022.2.5,Win32,60.03121623,101,264,pilot,,,,,k,1,5.348,0,6,6,6,1,funyafunya,Mim,050-funyafunya.mp3,"soft and limp; or mumbling, talking with food in mouth",sound of something being squashed,0.3,0,-0.3,0,k,,,,,,,,,,,,,,,,,,,,
68313,100,2023-10-04_09h41.51.954,e1,2022.2.5,Win32,60.03121623,101,264,pilot,,,,,k,0,4.8167,0,7,7,7,1,kasaneru,Verb,100-kasaneru.mp3,to stack,to jump,-0.3,0,0.3,0,s,,,,,,,,,,,,,,,,,,,,
68313,100,2023-10-04_09h41.51.954,e1,2022.2.5,Win32,60.03121623,101,264,pilot,,,,,s,1,7.2656,0,8,8,8,1,tegami,Noun,051-tegami.mp3,letter (as in mail),limit,-0.3,0,0.3,0,s,,,,,,,,,,,,,,,,,,,,
68313,100,2023-10-04_09h41.51.954,e1,2022.2.5,Win32,60.03121623,101,264,pilot,,,,,k,1,6.5151,0,9,9,9,1,mizu,Noun,060-mizu.mp3,water,past,0.3,0,-0.3,0,k,,,,,,,,,,,,,,,,,,,,
68313,100,2023-10-04_09h41.51.954,e1,2022.2.5,Win32,60.03121623,101,264,pilot,,,,,s,1,3.9673,0,10,10,10,1,kotoshi,Noun,064-kotoshi.mp3,this year,festival,-0.3,0,0.3,0,s,,,,,,,,,,,,,,,,,,,,
68313,100,2023-10-04_09h41.51.954,e1,2022.2.5,Win32,60.03121623,101,264,pilot,,,,,k,1,2.0653,0,11,11,11,1,haha,Noun,070-haha.mp3,mother,local,0.3,0,-0.3,0,k,,,,,,,,,,,,,,,,,,,,
68313,100,2023-10-04_09h41.51.954,e1,2022.2.5,Win32,60.03121623,101,264,pilot,,,,,k,1,5.0165,0,12,12,12,1,kurai,Adj,016-kurai.mp3,dark,rare,0.3,0,-0.3,0,k,,,,,,,,,,,,,,,,,,,,
68313,100,2023-10-04_09h41.51.954,e1,2022.2.5,Win32,60.03121623,101,264,pilot,,,,,s,0,4.6166,0,13,13,13,1,pekon,Mim,030-pekon.mp3,bowing lightly and casually,with a bang,0.3,0,-0.3,0,k,,,,,,,,,,,,,,,,,,,,
68313,100,2023-10-04_09h41.51.954,e1,2022.2.5,Win32,60.03121623,101,264,pilot,,,,,s,0,7.0154,0,14,14,14,1,kasanaru,Verb,087-kasanaru.mp3,to overlap,to accompany,0.3,0,-0.3,0,k,,,,,,,,,,,,,,,,,,,,
68313,100,2023-10-04_09h41.51.954,e1,2022.2.5,Win32,60.03121623,101,264,pilot,,,,,s,1,5.5325,0,15,15,15,1,noru,Verb,093-noru.mp3,to get on,to deepen,-0.3,0,0.3,0,s,,,,,,,,,,,,,,,,,,,,
68313,100,2023-10-04_09h41.51.954,e1,2022.2.5,Win32,60.03121623,101,264,pilot,,,,,k,1,3.6335,0,16,16,16,1,hirogeru,Verb,097-hirogeru.mp3,to spread,to read,0.3,0,-0.3,0,k,,,,,,,,,,,,,,,,,,,,
68313,100,2023-10-04_09h41.51.954,e1,2022.2.5,Win32,60.03121623,101,264,pilot,,,,,s,0,4.4173,0,17,17,17,1,buwabuwa,Mim,032-buwabuwa.mp3,spongy,"moving like a chick, chick-like",0.3,0,-0.3,0,k,,,,,,,,,,,,,,,,,,,,
68313,100,2023-10-04_09h41.51.954,e1,2022.2.5,Win32,60.03121623,101,264,pilot,,,,,s,1,3.8498,0,18,18,18,1,namida,Noun,063-namida.mp3,tears,word,-0.3,0,0.3,0,s,,,,,,,,,,,,,,,,,,,,
68313,100,2023-10-04_09h41.51.954,e1,2022.2.5,Win32,60.03121623,101,264,pilot,,,,,k,1,1.7577,0,19,19,19,1,hiku,Verb,094-hiku.mp3,to pull,to escape,0.3,0,-0.3,0,k,,,,,,,,,,,,,,,,,,,,
68313,100,2023-10-04_09h41.51.954,e1,2022.2.5,Win32,60.03121623,101,264,pilot,,,,,k,1,6.0155,0,20,20,20,1,furina,Adj,008-furina.mp3,disadvantaged,simple,0.3,0,-0.3,0,k,,,,,,,,,,,,,,,,,,,,
68313,100,2023-10-04_09h41.51.954,e1,2022.2.5,Win32,60.03121623,101,264,pilot,,,,,s,0,5.0667,0,21,21,21,1,futsufutsu,Mim,047-futsufutsu.mp3,simmer,wander,0.3,0,-0.3,0,k,,,,,,,,,,,,,,,,,,,,
68313,100,2023-10-04_09h41.51.954,e1,2022.2.5,Win32,60.03121623,101,264,pilot,,,,,k,0,2.2671,0,22,22,22,1,yutakana,Adj,014-yutakana.mp3,rich,old,-0.3,0,0.3,0,s,,,,,,,,,,,,,,,,,,,,
68313,100,2023-10-04_09h41.51.954,e1,2022.2.5,Win32,60.03121623,101,264,pilot,,,,,s,1,3.8558,0,23,23,23,1,samui,Adj,021-samui.mp3,cold,equal,-0.3,0,0.3,0,s,,,,,,,,,,,,,,,,,,,,
68313,100,2023-10-04_09h41.51.954,e1,2022.2.5,Win32,60.03121623,101,264,pilot,,,,,s,1,10.831,0,24,24,24,1,machigau,Verb,082-machigau.mp3,to wrong,to start,-0.3,0,0.3,0,s,,,,,,,,,,,,,,,,,,,,
68313,100,2023-10-04_09h41.51.954,e1,2022.2.5,Win32,60.03121623,101,264,pilot,,,,,k,0,6.1322,0,25,25,25,1,hana,Noun,074-hana.mp3,flower,light,-0.3,0,0.3,0,s,,,,,,,,,,,,,,,,,,,,
68313,100,2023-10-04_09h41.51.954,e1,2022.2.5,Win32,60.03121623,101,264,pilot,,,,,s,1,2.6204,0,26,26,26,1,naritatsu,Verb,081-naritatsu.mp3,to consist,to show,-0.3,0,0.3,0,s,,,,,,,,,,,,,,,,,,,,
68313,100,2023-10-04_09h41.51.954,e1,2022.2.5,Win32,60.03121623,101,264,pilot,,,,,s,0,7.6498,0,27,27,27,1,marui,Adj,025-marui.mp3,round,flat,0.3,0,-0.3,0,k,,,,,,,,,,,,,,,,,,,,
68313,100,2023-10-04_09h41.51.954,e1,2022.2.5,Win32,60.03121623,101,264,pilot,,,,,s,1,6.5658,0,28,28,28,1,mijikana,Adj,003-mijikana.mp3,familiar,bad at,-0.3,0,0.3,0,s,,,,,,,,,,,,,,,,,,,,
68313,100,2023-10-04_09h41.51.954,e1,2022.2.5,Win32,60.03121623,101,264,pilot,,,,,s,1,2.0161,0,29,29,29,1,garan,Mim,038-garan.mp3,empty,dry,-0.3,0,0.3,0,s,,,,,,,,,,,,,,,,,,,,
68313,100,2023-10-04_09h41.51.954,e1,2022.2.5,Win32,60.03121623,101,264,pilot,,,,,k,1,4.5362,0,30,30,30,1,chirochiro,Mim,041-chirochiro.mp3,"flicker of light, trickle of water",sound of stabbing,0.3,0,-0.3,0,k,,,,,,,,,,,,,,,,,,,,
68313,100,2023-10-04_09h41.51.954,e1,2022.2.5,Win32,60.03121623,101,264,pilot,,,,,k,0,5.3536,0,31,31,31,1,toboshii,Adj,011-toboshii.mp3,poor,white,-0.3,0,0.3,0,s,,,,,,,,,,,,,,,,,,,,
68313,100,2023-10-04_09h41.51.954,e1,2022.2.5,Win32,60.03121623,101,264,pilot,,,,,s,1,2.6012,0,32,32,32,1,sakana,Noun,057-sakana.mp3,fish,letter (as in alphabet),-0.3,0,0.3,0,s,,,,,,,,,,,,,,,,,,,,
68313,100,2023-10-04_09h41.51.954,e1,2022.2.5,Win32,60.03121623,101,264,pilot,,,,,s,1,4.6663,0,33,33,33,1,pikari,Mim,031-pikari.mp3,"with a flash, brightly, dazzlingly","downheartedly, dejectedly",-0.3,0,0.3,0,s,,,,,,,,,,,,,,,,,,,,
68313,100,2023-10-04_09h41.51.954,e1,2022.2.5,Win32,60.03121623,101,264,pilot,,,,,k,1,2.067,0,34,34,34,1,katachi,Noun,059-katachi.mp3,form,one,0.3,0,-0.3,0,k,,,,,,,,,,,,,,,,,,,,
68313,100,2023-10-04_09h41.51.954,e1,2022.2.5,Win32,60.03121623,101,264,pilot,,,,,k,1,9.8148,0,35,35,35,1,mamoru,Verb,098-mamoru.mp3,to protect,to speak to oneself in a quiet voice,0.3,0,-0.3,0,k,,,,,,,,,,,,,,,,,,,,
68313,100,2023-10-04_09h41.51.954,e1,2022.2.5,Win32,60.03121623,101,264,pilot,,,,,k,1,7.5651,0,36,36,36,1,hanashi,Noun,055-hanashi.mp3,conversation,land,0.3,0,-0.3,0,k,,,,,,,,,,,,,,,,,,,,
68313,100,2023-10-04_09h41.51.954,e1,2022.2.5,Win32,60.03121623,101,264,pilot,,,,,s,1,4.7494,0,37,37,37,1,mitsumeru,Verb,088-mitsumeru.mp3,to stare,to express,-0.3,0,0.3,0,s,,,,,,,,,,,,,,,,,,,,
68313,100,2023-10-04_09h41.51.954,e1,2022.2.5,Win32,60.03121623,101,264,pilot,,,,,k,1,4.0664,0,38,38,38,1,hiroi,Adj,019-hiroi.mp3,wide,strong,0.3,0,-0.3,0,k,,,,,,,,,,,,,,,,,,,,
68313,100,2023-10-04_09h41.51.954,e1,2022.2.5,Win32,60.03121623,101,264,pilot,,,,,k,1,4.6494,0,39,39,39,1,Right,AttentionCheck,Check_Right.mp3,shape,body,0.3,0,-0.3,0,k,,,,,,,,,,,,,,,,,,,,
68313,100,2023-10-04_09h41.51.954,e1,2022.2.5,Win32,60.03121623,101,264,pilot,,,,,k,0,4.1487,0,40,40,40,1,gakun,Mim,039-gakun.mp3,dropping one's head or shoulders,restless,-0.3,0,0.3,0,s,,,,,,,,,,,,,,,,,,,,
68313,100,2023-10-04_09h41.51.954,e1,2022.2.5,Win32,60.03121623,101,264,pilot,,,,,k,1,3.383,0,41,41,41,1,majimena,Adj,010-majimena.mp3,serious,dirty,0.3,0,-0.3,0,k,,,,,,,,,,,,,,,,,,,,
68313,100,2023-10-04_09h41.51.954,e1,2022.2.5,Win32,60.03121623,101,264,pilot,,,,,k,1,4.6161,0,42,42,42,1,yuku,Verb,077-yuku.mp3,to go,to summarize,0.3,0,-0.3,0,k,,,,,,,,,,,,,,,,,,,,
68313,100,2023-10-04_09h41.51.954,e1,2022.2.5,Win32,60.03121623,101,264,pilot,,,,,s,1,2.9344,0,43,43,43,1,tsuma,Noun,053-tsuma.mp3,wife,other,-0.3,0,0.3,0,s,,,,,,,,,,,,,,,,,,,,
68313,100,2023-10-04_09h41.51.954,e1,2022.2.5,Win32,60.03121623,101,264,pilot,,,,,s,0,3.1927,0,44,44,44,1,sadameru,Verb,096-sadameru.mp3,to define,to call,0.3,0,-0.3,0,k,,,,,,,,,,,,,,,,,,,,
68313,100,2023-10-04_09h41.51.954,e1,2022.2.5,Win32,60.03121623,101,264,pilot,,,,,k,1,2.0165,0,45,45,45,1,debudebu,Mim,037-debudebu.mp3,fat,spontaneously,0.3,0,-0.3,0,k,,,,,,,,,,,,,,,,,,,,
68313,100,2023-10-04_09h41.51.954,e1,2022.2.5,Win32,60.03121623,101,264,pilot,,,,,s,1,4.6826,0,46,46,46,1,shinu,Verb,092-shinu.mp3,to die,to look up,-0.3,0,0.3,0,s,,,,,,,,,,,,,,,,,,,,
68313,100,2023-10-04_09h41.51.954,e1,2022.2.5,Win32,60.03121623,101,264,pilot,,,,,s,1,7.9719,0,47,47,47,1,petan,Mim,043-petan.mp3,sound of something making firm contact with a flat surface,messy,-0.3,0,0.3,0,s,,,,,,,,,,,,,,,,,,,,
68313,100,2023-10-04_09h41.51.954,e1,2022.2.5,Win32,60.03121623,101,264,pilot,,,,,s,1,1.8337,0,48,48,48,1,kusai,Adj,015-kusai.mp3,smelly,awkward,-0.3,0,0.3,0,s,,,,,,,,,,,,,,,,,,,,
68313,100,2023-10-04_09h41.51.954,e1,2022.2.5,Win32,60.03121623,101,264,pilot,,,,,s,1,3.7337,0,49,49,49,1,kebakeba,Mim,040-kebakeba.mp3,too much makeup,gently falling,-0.3,0,0.3,0,s,,,,,,,,,,,,,,,,,,,,
68313,100,2023-10-04_09h41.51.954,e1,2022.2.5,Win32,60.03121623,101,264,pilot,,,,,,,,,,,,,,,,,,,,,,,37,right,4.9756,,,,,,,,,,,,,,,,,
68313,100,2023-10-04_09h41.51.954,e1,2022.2.5,Win32,60.03121623,101,264,pilot,,,,,,,,,,,,,,,,,,,,,,,,,,male,right,4.3316,,,,,,,,,,,,,,
68313,100,2023-10-04_09h41.51.954,e1,2022.2.5,Win32,60.03121623,101,264,pilot,,,,,,,,,,,,,,,,,,,,,,,,,,,,,bulgarian,right,3.3166,,,,,,,,,,,
68313,100,2023-10-04_09h41.51.954,e1,2022.2.5,Win32,60.03121623,101,264,pilot,,,,,,,,,,,,,,,,,,,,,,,,,,,,,,,,english,right,6.4729,,,,,,,,
68313,100,2023-10-04_09h41.51.954,e1,2022.2.5,Win32,60.03121623,101,264,pilot,,,,,,,,,,,,,,,,,,,,,,,,,,,,,,,,,,,1,7.2241,right,5.0642,,,,
68313,100,2023-10-04_09h41.51.954,e1,2022.2.5,Win32,60.03121623,101,264,pilot,,,,,,,,,,,,,,,,,,,,,,,,,,,,,,,,,,,,,,,1,4.7273,right,1.1851
68313,100,2023-10-04_09h41.51.954,e1,2022.2.5,Win32,60.03121623,101,264,pilot,,,,,,,,,,,,,,,,,,,,,,,,,,,,,,,,,,,,,,,,,,
﻿session,group,date,expName,psychopyVersion,OS,frameRate,participant,expt,status,key_resp.keys,key_resp.rt,key_resp_5.keys,key_resp_5.rt,key_resp_2.keys,key_resp_2.corr,key_resp_2.rt,trials.thisRepN,trials.thisTrialN,trials.thisN,trials.thisIndex,trials.ran,Word,WordClass,FilePath,Target,Foil,TargetPositionX,TargetPositionY,FoilPositionX,FoilPositionY,CorrectKey,textbox.text,enter.keys,enter.rt,textbox_2.text,enter_2.keys,enter_2.rt,textbox_3.text,enter_3.keys,enter_3.rt,textbox_4.text,enter_4.keys,enter_4.rt,slider.response,slider.rt,key_resp_3.keys,key_resp_3.rt,slider_2.response,slider_2.rt,key_resp_4.keys,key_resp_4.rt
68316,37,2023-10-04_09h41.48.350,e1,2022.2.5,Win32,59.98080614,103,264,pilot,,,,,,,,,,,,,,,,,,,,,,,,,,,,,,,,,,,,,,,,,,
68316,37,2023-10-04_09h41.48.350,e1,2022.2.5,Win32,59.98080614,103,264,pilot,k,10.4079,,,,,,,,,,,,,,,,,,,,,,,,,,,,,,,,,,,,,,,,
68316,37,2023-10-04_09h41.48.350,e1,2022.2.5,Win32,59.98080614,103,264,pilot,,,s,3.5537,,,,,,,,,,,,,,,,,,,,,,,,,,,,,,,,,,,,,,
68316,37,2023-10-04_09h41.48.350,e1,2022.2.5,Win32,59.98080614,103,264,pilot,,,,,s,1,3.8325,0,0,0,0,1,Left,AttentionCheck,Check_Left.mp3,to compare,to trust,-0.3,0,0.3,0,s,,,,,,,,,,,,,,,,,,,,
68316,37,2023-10-04_09h41.48.350,e1,2022.2.5,Win32,59.98080614,103,264,pilot,,,,,k,1,1.6835,0,1,1,1,1,gusha,Mim,046-gusha.mp3,sound of something being squashed,gently falling,0.3,0,-0.3,0,k,,,,,,,,,,,,,,,,,,,,
68316,37,2023-10-04_09h41.48.350,e1,2022.2.5,Win32,59.98080614,103,264,pilot,,,,,k,0,1.286,0,2,2,2,1,noberu,Verb,078-noberu.mp3,to express,to show,-0.3,0,0.3,0,s,,,,,,,,,,,,,,,,,,,,
68316,37,2023-10-04_09h41.48.350,e1,2022.2.5,Win32,59.98080614,103,264,pilot,,,,,s,0,1.1511,0,3,3,3,1,furina,Adj,008-furina.mp3,disadvantaged,strong,0.3,0,-0.3,0,k,,,,,,,,,,,,,,,,,,,,
68316,37,2023-10-04_09h41.48.350,e1,2022.2.5,Win32,59.98080614,103,264,pilot,,,,,s,1,1.6868,0,4,4,4,1,yuku,Verb,077-yuku.mp3,to go,to read,-0.3,0,0.3,0,s,,,,,,,,,,,,,,,,,,,,
68316,37,2023-10-04_09h41.48.350,e1,2022.2.5,Win32,59.98080614,103,264,pilot,,,,,k,1,1.435,0,5,5,5,1,kuchi,Noun,067-kuchi.mp3,mouth,limit,0.3,0,-0.3,0,k,,,,,,,,,,,,,,,,,,,,
68316,37,2023-10-04_09h41.48.350,e1,2022.2.5,Win32,59.98080614,103,264,pilot,,,,,k,1,0.9229,0,6,6,6,1,nakama,Noun,066-nakama.mp3,friend,other,0.3,0,-0.3,0,k,,,,,,,,,,,,,,,,,,,,
68316,37,2023-10-04_09h41.48.350,e1,2022.2.5,Win32,59.98080614,103,264,pilot,,,,,k,1,1.9955,0,7,7,7,1,takumina,Adj,004-takumina.mp3,skillful,rare,0.3,0,-0.3,0,k,,,,,,,,,,,,,,,,,,,,
68316,37,2023-10-04_09h41.48.350,e1,2022.2.5,Win32,59.98080614,103,264,pilot,,,,,s,0,0.7506,0,8,8,8,1,kotoshi,Noun,064-kotoshi.mp3,this year,one,0.3,0,-0.3,0,k,,,,,,,,,,,,,,,,,,,,
68316,37,2023-10-04_09h41.48.350,e1,2022.2.5,Win32,59.98080614,103,264,pilot,,,,,k,1,1.1361,0,9,9,9,1,buwabuwa,Mim,032-buwabuwa.mp3,spongy,too much makeup,0.3,0,-0.3,0,k,,,,,,,,,,,,,,,,,,,,
68316,37,2023-10-04_09h41.48.350,e1,2022.2.5,Win32,59.98080614,103,264,pilot,,,,,s,0,0.7506,0,10,10,10,1,mizu,Noun,060-mizu.mp3,water,fish,0.3,0,-0.3,0,k,,,,,,,,,,,,,,,,,,,,
68316,37,2023-10-04_09h41.48.350,e1,2022.2.5,Win32,59.98080614,103,264,pilot,,,,,s,0,1.4682,0,11,11,11,1,moji,Noun,071-moji.mp3,letter (as in alphabet),tears,0.3,0,-0.3,0,k,,,,,,,,,,,,,,,,,,,,
68316,37,2023-10-04_09h41.48.350,e1,2022.2.5,Win32,59.98080614,103,264,pilot,,,,,k,0,0.9177,0,12,12,12,1,kasanaru,Verb,087-kasanaru.mp3,to overlap,to consist,-0.3,0,0.3,0,s,,,,,,,,,,,,,,,,,,,,
68316,37,2023-10-04_09h41.48.350,e1,2022.2.5,Win32,59.98080614,103,264,pilot,,,,,k,0,1.2141,0,13,13,13,1,goshagosha,Mim,034-goshagosha.mp3,messy,"downheartedly, dejectedly",-0.3,0,0.3,0,s,,,,,,,,,,,,,,,,,,,,
68316,37,2023-10-04_09h41.48.350,e1,2022.2.5,Win32,59.98080614,103,264,pilot,,,,,s,1,1.2348,0,14,14,14,1,furui,Adj,013-furui.mp3,old,wide,-0.3,0,0.3,0,s,,,,,,,,,,,,,,,,,,,,
68316,37,2023-10-04_09h41.48.350,e1,2022.2.5,Win32,59.98080614,103,264,pilot,,,,,s,0,1.0845,0,15,15,15,1,tegami,Noun,051-tegami.mp3,letter (as in mail),long time ago,0.3,0,-0.3,0,k,,,,,,,,,,,,,,,,,,,,
68316,37,2023-10-04_09h41.48.350,e1,2022.2.5,Win32,59.98080614,103,264,pilot,,,,,s,1,1.35,0,16,16,16,1,nigatena,Adj,009-nigatena.mp3,bad at,white,-0.3,0,0.3,0,s,,,,,,,,,,,,,,,,,,,,
68316,37,2023-10-04_09h41.48.350,e1,2022.2.5,Win32,59.98080614,103,264,pilot,,,,,s,1,1.1694,0,17,17,17,1,tsuma,Noun,053-tsuma.mp3,wife,word,-0.3,0,0.3,0,s,,,,,,,,,,,,,,,,,,,,
68316,37,2023-10-04_09h41.48.350,e1,2022.2.5,Win32,59.98080614,103,264,pilot,,,,,k,0,0.535,0,18,18,18,1,yume,Noun,062-yume.mp3,dream,form,-0.3,0,0.3,0,s,,,,,,,,,,,,,,,,,,,,
68316,37,2023-10-04_09h41.48.350,e1,2022.2.5,Win32,59.98080614,103,264,pilot,,,,,s,1,1.0899,0,19,19,19,1,toboshii,Adj,011-toboshii.mp3,poor,another,-0.3,0,0.3,0,s,,,,,,,,,,,,,,,,,,,,
68316,37,2023-10-04_09h41.48.350,e1,2022.2.5,Win32,59.98080614,103,264,pilot,,,,,k,1,3.2332,0,20,20,20,1,Right,AttentionCheck,Check_Right.mp3,shape,body,0.3,0,-0.3,0,k,,,,,,,,,,,,,,,,,,,,
68316,37,2023-10-04_09h41.48.350,e1,2022.2.5,Win32,59.98080614,103,264,pilot,,,,,k,1,1.4354,0,21,21,21,1,chirochiro,Mim,041-chirochiro.mp3,"flicker of light, trickle of water","moving like a chick, chick-like",0.3,0,-0.3,0,k,,,,,,,,,,,,,,,,,,,,
68316,37,2023-10-04_09h41.48.350,e1,2022.2.5,Win32,59.98080614,103,264,pilot,,,,,k,1,1.5662,0,22,22,22,1,haha,Noun,070-haha.mp3,mother,festival,0.3,0,-0.3,0,k,,,,,,,,,,,,,,,,,,,,
68316,37,2023-10-04_09h41.48.350,e1,2022.2.5,Win32,59.98080614,103,264,pilot,,,,,k,1,0.9845,0,23,23,23,1,kotori,Mim,036-kotori.mp3,sound of something little falling or moving,with a bang,0.3,0,-0.3,0,k,,,,,,,,,,,,,,,,,,,,
68316,37,2023-10-04_09h41.48.350,e1,2022.2.5,Win32,59.98080614,103,264,pilot,,,,,k,1,0.8987,0,24,24,24,1,hayamena,Adj,001-hayamena.mp3,early,cold,0.3,0,-0.3,0,k,,,,,,,,,,,,,,,,,,,,
68316,37,2023-10-04_09h41.48.350,e1,2022.2.5,Win32,59.98080614,103,264,pilot,,,,,s,1,0.5356,0,25,25,25,1,kiyoi,Adj,020-kiyoi.mp3,pure,round,-0.3,0,0.3,0,s,,,,,,,,,,,,,,,,,,,,
68316,37,2023-10-04_09h41.48.350,e1,2022.2.5,Win32,59.98080614,103,264,pilot,,,,,s,0,1.5097,0,26,26,26,1,tsubuyaku,Verb,090-tsubuyaku.mp3,to speak to oneself in a quiet voice,to call,0.3,0,-0.3,0,k,,,,,,,,,,,,,,,,,,,,
68316,37,2023-10-04_09h41.48.350,e1,2022.2.5,Win32,59.98080614,103,264,pilot,,,,,k,0,0.8507,0,27,27,27,1,chikaku,Noun,073-chikaku.mp3,vicinity,local,-0.3,0,0.3,0,s,,,,,,,,,,,,,,,,,,,,
68316,37,2023-10-04_09h41.48.350,e1,2022.2.5,Win32,59.98080614,103,264,pilot,,,,,s,1,1.0701,0,28,28,28,1,debudebu,Mim,037-debudebu.mp3,fat,simmer,-0.3,0,0.3,0,s,,,,,,,,,,,,,,,,,,,,
68316,37,2023-10-04_09h41.48.350,e1,2022.2.5,Win32,59.98080614,103,264,pilot,,,,,s,1,1.3347,0,29,29,29,1,shiraberu,Verb,089-shiraberu.mp3,to look up,to protect,-0.3,0,0.3,0,s,,,,,,,,,,,,,,,,,,,,
68316,37,2023-10-04_09h41.48.350,e1,2022.2.5,Win32,59.98080614,103,264,pilot,,,,,k,0,0.8728,0,30,30,30,1,hana,Noun,074-hana.mp3,flower,land,-0.3,0,0.3,0,s,,,,,,,,,,,,,,,,,,,,
68316,37,2023-10-04_09h41.48.350,e1,2022.2.5,Win32,59.98080614,103,264,pilot,,,,,k,1,1.2046,0,31,31,31,1,sadameru,Verb,096-sadameru.mp3,to define,to jump,0.3,0,-0.3,0,k,,,,,,,,,,,,,,,,,,,,
68316,37,2023-10-04_09h41.48.350,e1,2022.2.5,Win32,59.98080614,103,264,pilot,,,,,k,1,0.933,0,32,32,32,1,nukeru,Verb,086-nukeru.mp3,to escape,to summarize,0.3,0,-0.3,0,k,,,,,,,,,,,,,,,,,,,,
68316,37,2023-10-04_09h41.48.350,e1,2022.2.5,Win32,59.98080614,103,264,pilot,,,,,s,0,1.0834,0,33,33,33,1,kako,Noun,052-kako.mp3,past,light,0.3,0,-0.3,0,k,,,,,,,,,,,,,,,,,,,,
68316,37,2023-10-04_09h41.48.350,e1,2022.2.5,Win32,59.98080614,103,264,pilot,,,,,s,1,1.2948,0,34,34,34,1,majimena,Adj,010-majimena.mp3,serious,dark,-0.3,0,0.3,0,s,,,,,,,,,,,,,,,,,,,,
68316,37,2023-10-04_09h41.48.350,e1,2022.2.5,Win32,59.98080614,103,264,pilot,,,,,k,0,0.7484,0,35,35,35,1,busuri,Mim,035-busuri.mp3,sound of stabbing,empty,-0.3,0,0.3,0,s,,,,,,,,,,,,,,,,,,,,
68316,37,2023-10-04_09h41.48.350,e1,2022.2.5,Win32,59.98080614,103,264,pilot,,,,,s,0,1.7366,0,36,36,36,1,wasawasa,Mim,048-wasawasa.mp3,restless,dropping one's head or shoulders,0.3,0,-0.3,0,k,,,,,,,,,,,,,,,,,,,,
68316,37,2023-10-04_09h41.48.350,e1,2022.2.5,Win32,59.98080614,103,264,pilot,,,,,k,0,2.5347,0,37,37,37,1,tsuratsura,Mim,029-tsuratsura.mp3,spontaneously,sound of something making firm contact with a flat surface,-0.3,0,0.3,0,s,,,,,,,,,,,,,,,,,,,,
68316,37,2023-10-04_09h41.48.350,e1,2022.2.5,Win32,59.98080614,103,264,pilot,,,,,s,0,1.0957,0,38,38,38,1,wasureru,Verb,085-wasureru.mp3,to forget,to start,0.3,0,-0.3,0,k,,,,,,,,,,,,,,,,,,,,
68316,37,2023-10-04_09h41.48.350,e1,2022.2.5,Win32,59.98080614,103,264,pilot,,,,,k,0,1.2513,0,39,39,39,1,hiratai,Adj,022-hiratai.mp3,flat,familiar,-0.3,0,0.3,0,s,,,,,,,,,,,,,,,,,,,,
68316,37,2023-10-04_09h41.48.350,e1,2022.2.5,Win32,59.98080614,103,264,pilot,,,,,k,0,0.8925,0,40,40,40,1,mitsumeru,Verb,088-mitsumeru.mp3,to stare,to wrong,-0.3,0,0.3,0,s,,,,,,,,,,,,,,,,,,,,
68316,37,2023-10-04_09h41.48.350,e1,2022.2.5,Win32,59.98080614,103,264,pilot,,,,,s,0,1.3195,0,41,41,41,1,fukameru,Verb,079-fukameru.mp3,to deepen,to stack,0.3,0,-0.3,0,k,,,,,,,,,,,,,,,,,,,,
68316,37,2023-10-04_09h41.48.350,e1,2022.2.5,Win32,59.98080614,103,264,pilot,,,,,k,0,1.334,0,42,42,42,1,pekon,Mim,030-pekon.mp3,bowing lightly and casually,dry,-0.3,0,0.3,0,s,,,,,,,,,,,,,,,,,,,,
68316,37,2023-10-04_09h41.48.350,e1,2022.2.5,Win32,59.98080614,103,264,pilot,,,,,k,0,1.5147,0,43,43,43,1,katsukatsu,Mim,033-katsukatsu.mp3,"barely, scraping by","with a flash, brightly, dazzlingly",-0.3,0,0.3,0,s,,,,,,,,,,,,,,,,,,,,
68316,37,2023-10-04_09h41.48.350,e1,2022.2.5,Win32,59.98080614,103,264,pilot,,,,,s,1,1.8186,0,44,44,44,1,funyafunya,Mim,050-funyafunya.mp3,"soft and limp; or mumbling, talking with food in mouth",wander,-0.3,0,0.3,0,s,,,,,,,,,,,,,,,,,,,,
68316,37,2023-10-04_09h41.48.350,e1,2022.2.5,Win32,59.98080614,103,264,pilot,,,,,k,0,1.3929,0,45,45,45,1,tomonau,Verb,080-tomonau.mp3,to accompany,to pull,-0.3,0,0.3,0,s,,,,,,,,,,,,,,,,,,,,
68316,37,2023-10-04_09h41.48.350,e1,2022.2.5,Win32,59.98080614,103,264,pilot,,,,,k,0,1.8188,0,46,46,46,1,kimazui,Adj,017-kimazui.mp3,awkward,dirty,-0.3,0,0.3,0,s,,,,,,,,,,,,,,,,,,,,
68316,37,2023-10-04_09h41.48.350,e1,2022.2.5,Win32,59.98080614,103,264,pilot,,,,,k,0,1.4085,0,47,47,47,1,noru,Verb,093-noru.mp3,to get on,to spread,-0.3,0,0.3,0,s,,,,,,,,,,,,,,,,,,,,
68316,37,2023-10-04_09h41.48.350,e1,2022.2.5,Win32,59.98080614,103,264,pilot,,,,,k,1,1.0513,0,48,48,48,1,nemui,Adj,024-nemui.mp3,sleepy,simple,0.3,0,-0.3,0,k,,,,,,,,,,,,,,,,,,,,
68316,37,2023-10-04_09h41.48.350,e1,2022.2.5,Win32,59.98080614,103,264,pilot,,,,,k,0,1.1345,0,49,49,49,1,kusai,Adj,015-kusai.mp3,smelly,rich,-0.3,0,0.3,0,s,,,,,,,,,,,,,,,,,,,,
68316,37,2023-10-04_09h41.48.350,e1,2022.2.5,Win32,59.98080614,103,264,pilot,,,,,,,,,,,,,,,,,,,,,,,37,right,3.6372,,,,,,,,,,,,,,,,,
68316,37,2023-10-04_09h41.48.350,e1,2022.2.5,Win32,59.98080614,103,264,pilot,,,,,,,,,,,,,,,,,,,,,,,,,,female,right,1.5201,,,,,,,,,,,,,,
68316,37,2023-10-04_09h41.48.350,e1,2022.2.5,Win32,59.98080614,103,264,pilot,,,,,,,,,,,,,,,,,,,,,,,,,,,,,english,right,2.1873,,,,,,,,,,,
68316,37,2023-10-04_09h41.48.350,e1,2022.2.5,Win32,59.98080614,103,264,pilot,,,,,,,,,,,,,,,,,,,,,,,,,,,,,,,,none,right,1.9374,,,,,,,,
68316,37,2023-10-04_09h41.48.350,e1,2022.2.5,Win32,59.98080614,103,264,pilot,,,,,,,,,,,,,,,,,,,,,,,,,,,,,,,,,,,1,10.7452,right,1.6354,,,,
68316,37,2023-10-04_09h41.48.350,e1,2022.2.5,Win32,59.98080614,103,264,pilot,,,,,,,,,,,,,,,,,,,,,,,,,,,,,,,,,,,,,,,1,3.4253,right,1.101
68316,37,2023-10-04_09h41.48.350,e1,2022.2.5,Win32,59.98080614,103,264,pilot,,,,,,,,,,,,,,,,,,,,,,,,,,,,,,,,,,,,,,,,,,
﻿session,group,date,expName,psychopyVersion,OS,frameRate,participant,expt,status,key_resp.keys,key_resp.rt,key_resp_5.keys,key_resp_5.rt,key_resp_2.keys,key_resp_2.corr,key_resp_2.rt,trials.thisRepN,trials.thisTrialN,trials.thisN,trials.thisIndex,trials.ran,Word,WordClass,FilePath,Target,Foil,TargetPositionX,TargetPositionY,FoilPositionX,FoilPositionY,CorrectKey,textbox.text,enter.keys,enter.rt,textbox_2.text,enter_2.keys,enter_2.rt,textbox_3.text,enter_3.keys,enter_3.rt,textbox_4.text,enter_4.keys,enter_4.rt,slider.response,slider.rt,key_resp_3.keys,key_resp_3.rt,slider_2.response,slider_2.rt,key_resp_4.keys,key_resp_4.rt
68317,83,2023-10-04_09h42.11.814,e1,2022.2.5,MacIntel,59.99880002,104,264,pilot,,,,,,,,,,,,,,,,,,,,,,,,,,,,,,,,,,,,,,,,,,
68317,83,2023-10-04_09h42.11.814,e1,2022.2.5,MacIntel,59.99880002,104,264,pilot,s,12.8676,,,,,,,,,,,,,,,,,,,,,,,,,,,,,,,,,,,,,,,,
68317,83,2023-10-04_09h42.11.814,e1,2022.2.5,MacIntel,59.99880002,104,264,pilot,,,s,4.1567,,,,,,,,,,,,,,,,,,,,,,,,,,,,,,,,,,,,,,
68317,83,2023-10-04_09h42.11.814,e1,2022.2.5,MacIntel,59.99880002,104,264,pilot,,,,,s,1,3.4122,0,0,0,0,1,Left,AttentionCheck,Check_Left.mp3,to compare,to trust,-0.3,0,0.3,0,s,,,,,,,,,,,,,,,,,,,,
68317,83,2023-10-04_09h42.11.814,e1,2022.2.5,MacIntel,59.99880002,104,264,pilot,,,,,s,0,1.8478,0,1,1,1,1,sakana,Noun,057-sakana.mp3,fish,mother,0.3,0,-0.3,0,k,,,,,,,,,,,,,,,,,,,,
68317,83,2023-10-04_09h42.11.814,e1,2022.2.5,MacIntel,59.99880002,104,264,pilot,,,,,k,0,3.3478,0,2,2,2,1,pekon,Mim,030-pekon.mp3,bowing lightly and casually,too much makeup,-0.3,0,0.3,0,s,,,,,,,,,,,,,,,,,,,,
68317,83,2023-10-04_09h42.11.814,e1,2022.2.5,MacIntel,59.99880002,104,264,pilot,,,,,k,0,2.1465,0,3,3,3,1,sadameru,Verb,096-sadameru.mp3,to define,to die,-0.3,0,0.3,0,s,,,,,,,,,,,,,,,,,,,,
68317,83,2023-10-04_09h42.11.814,e1,2022.2.5,MacIntel,59.99880002,104,264,pilot,,,,,k,0,2.0901,0,4,4,4,1,nakama,Noun,066-nakama.mp3,friend,letter (as in mail),-0.3,0,0.3,0,s,,,,,,,,,,,,,,,,,,,,
68317,83,2023-10-04_09h42.11.814,e1,2022.2.5,MacIntel,59.99880002,104,264,pilot,,,,,k,1,1.4131,0,5,5,5,1,mamoru,Verb,098-mamoru.mp3,to protect,to spread,0.3,0,-0.3,0,k,,,,,,,,,,,,,,,,,,,,
68317,83,2023-10-04_09h42.11.814,e1,2022.2.5,MacIntel,59.99880002,104,264,pilot,,,,,s,0,1.7298,0,6,6,6,1,mukashi,Noun,054-mukashi.mp3,long time ago,light,0.3,0,-0.3,0,k,,,,,,,,,,,,,,,,,,,,
68317,83,2023-10-04_09h42.11.814,e1,2022.2.5,MacIntel,59.99880002,104,264,pilot,,,,,s,0,1.3987,0,7,7,7,1,yobu,Verb,076-yobu.mp3,to call,to look up,0.3,0,-0.3,0,k,,,,,,,,,,,,,,,,,,,,
68317,83,2023-10-04_09h42.11.814,e1,2022.2.5,MacIntel,59.99880002,104,264,pilot,,,,,s,0,2.5158,0,8,8,8,1,hoka,Noun,075-hoka.mp3,other,limit,0.3,0,-0.3,0,k,,,,,,,,,,,,,,,,,,,,
68317,83,2023-10-04_09h42.11.814,e1,2022.2.5,MacIntel,59.99880002,104,264,pilot,,,,,k,0,3.0083,0,9,9,9,1,kimazui,Adj,017-kimazui.mp3,awkward,poor,-0.3,0,0.3,0,s,,,,,,,,,,,,,,,,,,,,
68317,83,2023-10-04_09h42.11.814,e1,2022.2.5,MacIntel,59.99880002,104,264,pilot,,,,,k,0,3.7981,0,10,10,10,1,hiyohiyo,Mim,028-hiyohiyo.mp3,"moving like a chick, chick-like",wander,-0.3,0,0.3,0,s,,,,,,,,,,,,,,,,,,,,
68317,83,2023-10-04_09h42.11.814,e1,2022.2.5,MacIntel,59.99880002,104,264,pilot,,,,,s,1,2.8186,0,11,11,11,1,gatan,Mim,049-gatan.mp3,with a bang,sound of something making firm contact with a flat surface,-0.3,0,0.3,0,s,,,,,,,,,,,,,,,,,,,,
68317,83,2023-10-04_09h42.11.814,e1,2022.2.5,MacIntel,59.99880002,104,264,pilot,,,,,s,0,1.1097,0,12,12,12,1,furina,Adj,008-furina.mp3,disadvantaged,sleepy,0.3,0,-0.3,0,k,,,,,,,,,,,,,,,,,,,,
68317,83,2023-10-04_09h42.11.814,e1,2022.2.5,MacIntel,59.99880002,104,264,pilot,,,,,k,1,2.8976,0,13,13,13,1,Right,AttentionCheck,Check_Right.mp3,shape,body,0.3,0,-0.3,0,k,,,,,,,,,,,,,,,,,,,,
68317,83,2023-10-04_09h42.11.814,e1,2022.2.5,MacIntel,59.99880002,104,264,pilot,,,,,k,1,2.2165,0,14,14,14,1,buwabuwa,Mim,032-buwabuwa.mp3,spongy,"barely, scraping by",0.3,0,-0.3,0,k,,,,,,,,,,,,,,,,,,,,
68317,83,2023-10-04_09h42.11.814,e1,2022.2.5,MacIntel,59.99880002,104,264,pilot,,,,,s,0,2.1121,0,15,15,15,1,mitsumeru,Verb,088-mitsumeru.mp3,to stare,to stack,0.3,0,-0.3,0,k,,,,,,,,,,,,,,,,,,,,
68317,83,2023-10-04_09h42.11.814,e1,2022.2.5,MacIntel,59.99880002,104,264,pilot,,,,,s,1,1.6333,0,16,16,16,1,namida,Noun,063-namida.mp3,tears,vicinity,-0.3,0,0.3,0,s,,,,,,,,,,,,,,,,,,,,
68317,83,2023-10-04_09h42.11.814,e1,2022.2.5,MacIntel,59.99880002,104,264,pilot,,,,,s,1,3.0029,0,17,17,17,1,matomeru,Verb,095-matomeru.mp3,to summarize,to consist,-0.3,0,0.3,0,s,,,,,,,,,,,,,,,,,,,,
68317,83,2023-10-04_09h42.11.814,e1,2022.2.5,MacIntel,59.99880002,104,264,pilot,,,,,s,1,1.1847,0,18,18,18,1,kusai,Adj,015-kusai.mp3,smelly,rare,-0.3,0,0.3,0,s,,,,,,,,,,,,,,,,,,,,
68317,83,2023-10-04_09h42.11.814,e1,2022.2.5,MacIntel,59.99880002,104,264,pilot,,,,,s,0,1.3166,0,19,19,19,1,wasawasa,Mim,048-wasawasa.mp3,restless,messy,0.3,0,-0.3,0,k,,,,,,,,,,,,,,,,,,,,
68317,83,2023-10-04_09h42.11.814,e1,2022.2.5,MacIntel,59.99880002,104,264,pilot,,,,,k,1,1.4335,0,20,20,20,1,wasureru,Verb,085-wasureru.mp3,to forget,to jump,0.3,0,-0.3,0,k,,,,,,,,,,,,,,,,,,,,
68317,83,2023-10-04_09h42.11.814,e1,2022.2.5,MacIntel,59.99880002,104,264,pilot,,,,,k,1,1.1825,0,21,21,21,1,hajimeru,Verb,084-hajimeru.mp3,to start,to pull,0.3,0,-0.3,0,k,,,,,,,,,,,,,,,,,,,,
68317,83,2023-10-04_09h42.11.814,e1,2022.2.5,MacIntel,59.99880002,104,264,pilot,,,,,k,1,1.8942,0,22,22,22,1,karari,Mim,026-karari.mp3,dry,sound of stabbing,0.3,0,-0.3,0,k,,,,,,,,,,,,,,,,,,,,
68317,83,2023-10-04_09h42.11.814,e1,2022.2.5,MacIntel,59.99880002,104,264,pilot,,,,,s,0,3.3227,0,23,23,23,1,nosori,Mim,027-nosori.mp3,sluggishly,dropping one's head or shoulders,0.3,0,-0.3,0,k,,,,,,,,,,,,,,,,,,,,
68317,83,2023-10-04_09h42.11.814,e1,2022.2.5,MacIntel,59.99880002,104,264,pilot,,,,,s,0,3.8094,0,24,24,24,1,gusha,Mim,046-gusha.mp3,sound of something being squashed,"soft and limp; or mumbling, talking with food in mouth",0.3,0,-0.3,0,k,,,,,,,,,,,,,,,,,,,,
68317,83,2023-10-04_09h42.11.814,e1,2022.2.5,MacIntel,59.99880002,104,264,pilot,,,,,s,1,1.1128,0,25,25,25,1,marui,Adj,025-marui.mp3,round,early,-0.3,0,0.3,0,s,,,,,,,,,,,,,,,,,,,,
68317,83,2023-10-04_09h42.11.814,e1,2022.2.5,MacIntel,59.99880002,104,264,pilot,,,,,k,1,1.1311,0,26,26,26,1,kasanaru,Verb,087-kasanaru.mp3,to overlap,to accompany,0.3,0,-0.3,0,k,,,,,,,,,,,,,,,,,,,,
68317,83,2023-10-04_09h42.11.814,e1,2022.2.5,MacIntel,59.99880002,104,264,pilot,,,,,s,0,1.4916,0,27,27,27,1,matsuri,Noun,065-matsuri.mp3,festival,wife,0.3,0,-0.3,0,k,,,,,,,,,,,,,,,,,,,,
68317,83,2023-10-04_09h42.11.814,e1,2022.2.5,MacIntel,59.99880002,104,264,pilot,,,,,s,0,1.3149,0,28,28,28,1,kuchi,Noun,067-kuchi.mp3,mouth,water,0.3,0,-0.3,0,k,,,,,,,,,,,,,,,,,,,,
68317,83,2023-10-04_09h42.11.814,e1,2022.2.5,MacIntel,59.99880002,104,264,pilot,,,,,k,1,2.0766,0,29,29,29,1,hiratai,Adj,022-hiratai.mp3,flat,dark,0.3,0,-0.3,0,k,,,,,,,,,,,,,,,,,,,,
68317,83,2023-10-04_09h42.11.814,e1,2022.2.5,MacIntel,59.99880002,104,264,pilot,,,,,s,1,0.842,0,30,30,30,1,kiyoi,Adj,020-kiyoi.mp3,pure,cold,-0.3,0,0.3,0,s,,,,,,,,,,,,,,,,,,,,
68317,83,2023-10-04_09h42.11.814,e1,2022.2.5,MacIntel,59.99880002,104,264,pilot,,,,,s,0,1.9617,0,31,31,31,1,takumina,Adj,004-takumina.mp3,skillful,familiar,0.3,0,-0.3,0,k,,,,,,,,,,,,,,,,,,,,
68317,83,2023-10-04_09h42.11.814,e1,2022.2.5,MacIntel,59.99880002,104,264,pilot,,,,,k,1,2.193,0,32,32,32,1,tsuyoi,Adj,018-tsuyoi.mp3,strong,simple,0.3,0,-0.3,0,k,,,,,,,,,,,,,,,,,,,,
68317,83,2023-10-04_09h42.11.814,e1,2022.2.5,MacIntel,59.99880002,104,264,pilot,,,,,k,1,2.3916,0,33,33,33,1,yume,Noun,062-yume.mp3,dream,local,0.3,0,-0.3,0,k,,,,,,,,,,,,,,,,,,,,
68317,83,2023-10-04_09h42.11.814,e1,2022.2.5,MacIntel,59.99880002,104,264,pilot,,,,,s,1,1.1139,0,34,34,34,1,tsuratsura,Mim,029-tsuratsura.mp3,spontaneously,fat,-0.3,0,0.3,0,s,,,,,,,,,,,,,,,,,,,,
68317,83,2023-10-04_09h42.11.814,e1,2022.2.5,MacIntel,59.99880002,104,264,pilot,,,,,s,1,2.2736,0,35,35,35,1,harari,Mim,045-harari.mp3,gently falling,"with a flash, brightly, dazzlingly",-0.3,0,0.3,0,s,,,,,,,,,,,,,,,,,,,,
68317,83,2023-10-04_09h42.11.814,e1,2022.2.5,MacIntel,59.99880002,104,264,pilot,,,,,k,0,2.0188,0,36,36,36,1,fukameru,Verb,079-fukameru.mp3,to deepen,to go,-0.3,0,0.3,0,s,,,,,,,,,,,,,,,,,,,,
68317,83,2023-10-04_09h42.11.814,e1,2022.2.5,MacIntel,59.99880002,104,264,pilot,,,,,s,1,1.6418,0,37,37,37,1,yutakana,Adj,014-yutakana.mp3,rich,bad at,-0.3,0,0.3,0,s,,,,,,,,,,,,,,,,,,,,
68317,83,2023-10-04_09h42.11.814,e1,2022.2.5,MacIntel,59.99880002,104,264,pilot,,,,,s,1,1.8366,0,38,38,38,1,chirochiro,Mim,041-chirochiro.mp3,"flicker of light, trickle of water",empty,-0.3,0,0.3,0,s,,,,,,,,,,,,,,,,,,,,
68317,83,2023-10-04_09h42.11.814,e1,2022.2.5,MacIntel,59.99880002,104,264,pilot,,,,,s,1,1.9288,0,39,39,39,1,kako,Noun,052-kako.mp3,past,form,-0.3,0,0.3,0,s,,,,,,,,,,,,,,,,,,,,
68317,83,2023-10-04_09h42.11.814,e1,2022.2.5,MacIntel,59.99880002,104,264,pilot,,,,,k,0,1.9079,0,40,40,40,1,tochi,Noun,056-tochi.mp3,land,conversation,-0.3,0,0.3,0,s,,,,,,,,,,,,,,,,,,,,
68317,83,2023-10-04_09h42.11.814,e1,2022.2.5,MacIntel,59.99880002,104,264,pilot,,,,,k,1,1.7822,0,41,41,41,1,noberu,Verb,078-noberu.mp3,to express,to wrong,0.3,0,-0.3,0,k,,,,,,,,,,,,,,,,,,,,
68317,83,2023-10-04_09h42.11.814,e1,2022.2.5,MacIntel,59.99880002,104,264,pilot,,,,,k,0,1.21,0,42,42,42,1,hitoshii,Adj,007-hitoshii.mp3,equal,dirty,-0.3,0,0.3,0,s,,,,,,,,,,,,,,,,,,,,
68317,83,2023-10-04_09h42.11.814,e1,2022.2.5,MacIntel,59.99880002,104,264,pilot,,,,,s,0,2.43,0,43,43,43,1,majimena,Adj,010-majimena.mp3,serious,another,0.3,0,-0.3,0,k,,,,,,,,,,,,,,,,,,,,
68317,83,2023-10-04_09h42.11.814,e1,2022.2.5,MacIntel,59.99880002,104,264,pilot,,,,,s,0,1.4268,0,44,44,44,1,nukeru,Verb,086-nukeru.mp3,to escape,to read,0.3,0,-0.3,0,k,,,,,,,,,,,,,,,,,,,,
68317,83,2023-10-04_09h42.11.814,e1,2022.2.5,MacIntel,59.99880002,104,264,pilot,,,,,k,1,1.0358,0,45,45,45,1,furui,Adj,013-furui.mp3,old,white,0.3,0,-0.3,0,k,,,,,,,,,,,,,,,,,,,,
68317,83,2023-10-04_09h42.11.814,e1,2022.2.5,MacIntel,59.99880002,104,264,pilot,,,,,s,0,2.1966,0,46,46,46,1,miseru,Verb,083-miseru.mp3,to show,to get on,0.3,0,-0.3,0,k,,,,,,,,,,,,,,,,,,,,
68317,83,2023-10-04_09h42.11.814,e1,2022.2.5,MacIntel,59.99880002,104,264,pilot,,,,,s,0,1.8146,0,47,47,47,1,hitotsu,Noun,068-hitotsu.mp3,one,flower,0.3,0,-0.3,0,k,,,,,,,,,,,,,,,,,,,,
68317,83,2023-10-04_09h42.11.814,e1,2022.2.5,MacIntel,59.99880002,104,264,pilot,,,,,k,0,3.5938,0,48,48,48,1,futsufutsu,Mim,047-futsufutsu.mp3,simmer,sound of something little falling or moving,-0.3,0,0.3,0,s,,,,,,,,,,,,,,,,,,,,
68317,83,2023-10-04_09h42.11.814,e1,2022.2.5,MacIntel,59.99880002,104,264,pilot,,,,,s,0,3.5072,0,49,49,49,1,moji,Noun,071-moji.mp3,letter (as in alphabet),this year,0.3,0,-0.3,0,k,,,,,,,,,,,,,,,,,,,,
68317,83,2023-10-04_09h42.11.814,e1,2022.2.5,MacIntel,59.99880002,104,264,pilot,,,,,,,,,,,,,,,,,,,,,,,47,right,1.9328,,,,,,,,,,,,,,,,,
68317,83,2023-10-04_09h42.11.814,e1,2022.2.5,MacIntel,59.99880002,104,264,pilot,,,,,,,,,,,,,,,,,,,,,,,,,,male,right,1.7878,,,,,,,,,,,,,,
68317,83,2023-10-04_09h42.11.814,e1,2022.2.5,MacIntel,59.99880002,104,264,pilot,,,,,,,,,,,,,,,,,,,,,,,,,,,,,English,right,2.188,,,,,,,,,,,
68317,83,2023-10-04_09h42.11.814,e1,2022.2.5,MacIntel,59.99880002,104,264,pilot,,,,,,,,,,,,,,,,,,,,,,,,,,,,,,,,Irish,right,3.0046,,,,,,,,
68317,83,2023-10-04_09h42.11.814,e1,2022.2.5,MacIntel,59.99880002,104,264,pilot,,,,,,,,,,,,,,,,,,,,,,,,,,,,,,,,,,,1,8.7392,right,1.5049,,,,
68317,83,2023-10-04_09h42.11.814,e1,2022.2.5,MacIntel,59.99880002,104,264,pilot,,,,,,,,,,,,,,,,,,,,,,,,,,,,,,,,,,,,,,,2,4.0622,right,1.3351
68317,83,2023-10-04_09h42.11.814,e1,2022.2.5,MacIntel,59.99880002,104,264,pilot,,,,,,,,,,,,,,,,,,,,,,,,,,,,,,,,,,,,,,,,,,
﻿session,group,date,expName,psychopyVersion,OS,frameRate,participant,expt,status,key_resp.keys,key_resp.rt,key_resp_5.keys,key_resp_5.rt,key_resp_2.keys,key_resp_2.corr,key_resp_2.rt,trials.thisRepN,trials.thisTrialN,trials.thisN,trials.thisIndex,trials.ran,Word,WordClass,FilePath,Target,Foil,TargetPositionX,TargetPositionY,FoilPositionX,FoilPositionY,CorrectKey,textbox.text,enter.keys,enter.rt,textbox_2.text,enter_2.keys,enter_2.rt,textbox_3.text,enter_3.keys,enter_3.rt,textbox_4.text,enter_4.keys,enter_4.rt,slider.response,slider.rt,key_resp_3.keys,key_resp_3.rt,slider_2.response,slider_2.rt,key_resp_4.keys,key_resp_4.rt
68318,64,2023-10-04_09h41.56.974,e1,2022.2.5,MacIntel,60.0024001,105,264,pilot,,,,,,,,,,,,,,,,,,,,,,,,,,,,,,,,,,,,,,,,,,
68318,64,2023-10-04_09h41.56.974,e1,2022.2.5,MacIntel,60.0024001,105,264,pilot,s,15.4111,,,,,,,,,,,,,,,,,,,,,,,,,,,,,,,,,,,,,,,,
68318,64,2023-10-04_09h41.56.974,e1,2022.2.5,MacIntel,60.0024001,105,264,pilot,,,k,5.2099,,,,,,,,,,,,,,,,,,,,,,,,,,,,,,,,,,,,,,
68318,64,2023-10-04_09h41.56.974,e1,2022.2.5,MacIntel,60.0024001,105,264,pilot,,,,,s,1,3.7452,0,0,0,0,1,Left,AttentionCheck,Check_Left.mp3,to compare,to trust,-0.3,0,0.3,0,s,,,,,,,,,,,,,,,,,,,,
68318,64,2023-10-04_09h41.56.974,e1,2022.2.5,MacIntel,60.0024001,105,264,pilot,,,,,s,0,3.7911,0,1,1,1,1,kebakeba,Mim,040-kebakeba.mp3,too much makeup,simmer,0.3,0,-0.3,0,k,,,,,,,,,,,,,,,,,,,,
68318,64,2023-10-04_09h41.56.974,e1,2022.2.5,MacIntel,60.0024001,105,264,pilot,,,,,k,0,1.8997,0,2,2,2,1,nigatena,Adj,009-nigatena.mp3,bad at,round,-0.3,0,0.3,0,s,,,,,,,,,,,,,,,,,,,,
68318,64,2023-10-04_09h41.56.974,e1,2022.2.5,MacIntel,60.0024001,105,264,pilot,,,,,k,1,2.0185,0,3,3,3,1,yuku,Verb,077-yuku.mp3,to go,to forget,0.3,0,-0.3,0,k,,,,,,,,,,,,,,,,,,,,
68318,64,2023-10-04_09h41.56.974,e1,2022.2.5,MacIntel,60.0024001,105,264,pilot,,,,,k,1,2.6058,0,4,4,4,1,sadameru,Verb,096-sadameru.mp3,to define,to call,0.3,0,-0.3,0,k,,,,,,,,,,,,,,,,,,,,
68318,64,2023-10-04_09h41.56.974,e1,2022.2.5,MacIntel,60.0024001,105,264,pilot,,,,,k,0,2.0259,0,5,5,5,1,tomonau,Verb,080-tomonau.mp3,to accompany,to get on,-0.3,0,0.3,0,s,,,,,,,,,,,,,,,,,,,,
68318,64,2023-10-04_09h41.56.974,e1,2022.2.5,MacIntel,60.0024001,105,264,pilot,,,,,k,0,6.2777,0,6,6,6,1,tsubuyaku,Verb,090-tsubuyaku.mp3,to speak to oneself in a quiet voice,to summarize,-0.3,0,0.3,0,s,,,,,,,,,,,,,,,,,,,,
68318,64,2023-10-04_09h41.56.974,e1,2022.2.5,MacIntel,60.0024001,105,264,pilot,,,,,s,0,1.41,0,7,7,7,1,kimazui,Adj,017-kimazui.mp3,awkward,sleepy,0.3,0,-0.3,0,k,,,,,,,,,,,,,,,,,,,,
68318,64,2023-10-04_09h41.56.974,e1,2022.2.5,MacIntel,60.0024001,105,264,pilot,,,,,k,1,4.6286,0,8,8,8,1,debudebu,Mim,037-debudebu.mp3,fat,dropping one's head or shoulders,0.3,0,-0.3,0,k,,,,,,,,,,,,,,,,,,,,
68318,64,2023-10-04_09h41.56.974,e1,2022.2.5,MacIntel,60.0024001,105,264,pilot,,,,,s,1,3.7939,0,9,9,9,1,chirochiro,Mim,041-chirochiro.mp3,"flicker of light, trickle of water",wander,-0.3,0,0.3,0,s,,,,,,,,,,,,,,,,,,,,
68318,64,2023-10-04_09h41.56.974,e1,2022.2.5,MacIntel,60.0024001,105,264,pilot,,,,,k,1,2.3906,0,10,10,10,1,samui,Adj,021-samui.mp3,cold,pure,0.3,0,-0.3,0,k,,,,,,,,,,,,,,,,,,,,
68318,64,2023-10-04_09h41.56.974,e1,2022.2.5,MacIntel,60.0024001,105,264,pilot,,,,,k,0,2.4807,0,11,11,11,1,kagiri,Noun,061-kagiri.mp3,limit,land,-0.3,0,0.3,0,s,,,,,,,,,,,,,,,,,,,,
68318,64,2023-10-04_09h41.56.974,e1,2022.2.5,MacIntel,60.0024001,105,264,pilot,,,,,s,1,1.2207,0,12,12,12,1,nosori,Mim,027-nosori.mp3,sluggishly,spontaneously,-0.3,0,0.3,0,s,,,,,,,,,,,,,,,,,,,,
68318,64,2023-10-04_09h41.56.974,e1,2022.2.5,MacIntel,60.0024001,105,264,pilot,,,,,k,1,3.5122,0,13,13,13,1,Right,AttentionCheck,Check_Right.mp3,shape,body,0.3,0,-0.3,0,k,,,,,,,,,,,,,,,,,,,,
68318,64,2023-10-04_09h41.56.974,e1,2022.2.5,MacIntel,60.0024001,105,264,pilot,,,,,s,0,0.2854,0,14,14,14,1,furui,Adj,013-furui.mp3,old,white,0.3,0,-0.3,0,k,,,,,,,,,,,,,,,,,,,,
68318,64,2023-10-04_09h41.56.974,e1,2022.2.5,MacIntel,60.0024001,105,264,pilot,,,,,k,0,0.2879,0,15,15,15,1,karari,Mim,026-karari.mp3,dry,"soft and limp; or mumbling, talking with food in mouth",-0.3,0,0.3,0,s,,,,,,,,,,,,,,,,,,,,
68318,64,2023-10-04_09h41.56.974,e1,2022.2.5,MacIntel,60.0024001,105,264,pilot,,,,,s,1,0.7139,0,16,16,16,1,machigau,Verb,082-machigau.mp3,to wrong,to express,-0.3,0,0.3,0,s,,,,,,,,,,,,,,,,,,,,
68318,64,2023-10-04_09h41.56.974,e1,2022.2.5,MacIntel,60.0024001,105,264,pilot,,,,,s,1,0.2482,0,17,17,17,1,miseru,Verb,083-miseru.mp3,to show,to consist,-0.3,0,0.3,0,s,,,,,,,,,,,,,,,,,,,,
68318,64,2023-10-04_09h41.56.974,e1,2022.2.5,MacIntel,60.0024001,105,264,pilot,,,,,k,0,1.3843,0,18,18,18,1,harari,Mim,045-harari.mp3,gently falling,"with a flash, brightly, dazzlingly",-0.3,0,0.3,0,s,,,,,,,,,,,,,,,,,,,,
68318,64,2023-10-04_09h41.56.974,e1,2022.2.5,MacIntel,60.0024001,105,264,pilot,,,,,k,1,1.0275,0,19,19,19,1,gatan,Mim,049-gatan.mp3,with a bang,restless,0.3,0,-0.3,0,k,,,,,,,,,,,,,,,,,,,,
68318,64,2023-10-04_09h41.56.974,e1,2022.2.5,MacIntel,60.0024001,105,264,pilot,,,,,k,0,0.9931,0,20,20,20,1,fukameru,Verb,079-fukameru.mp3,to deepen,to start,-0.3,0,0.3,0,s,,,,,,,,,,,,,,,,,,,,
68318,64,2023-10-04_09h41.56.974,e1,2022.2.5,MacIntel,60.0024001,105,264,pilot,,,,,s,1,2.8023,0,21,21,21,1,katsukatsu,Mim,033-katsukatsu.mp3,"barely, scraping by",empty,-0.3,0,0.3,0,s,,,,,,,,,,,,,,,,,,,,
68318,64,2023-10-04_09h41.56.974,e1,2022.2.5,MacIntel,60.0024001,105,264,pilot,,,,,k,1,1.8355,0,22,22,22,1,hirogeru,Verb,097-hirogeru.mp3,to spread,to stack,0.3,0,-0.3,0,k,,,,,,,,,,,,,,,,,,,,
68318,64,2023-10-04_09h41.56.974,e1,2022.2.5,MacIntel,60.0024001,105,264,pilot,,,,,k,0,1.4359,0,23,23,23,1,mamoru,Verb,098-mamoru.mp3,to protect,to die,-0.3,0,0.3,0,s,,,,,,,,,,,,,,,,,,,,
68318,64,2023-10-04_09h41.56.974,e1,2022.2.5,MacIntel,60.0024001,105,264,pilot,,,,,k,0,1.4694,0,24,24,24,1,busuri,Mim,035-busuri.mp3,sound of stabbing,spongy,-0.3,0,0.3,0,s,,,,,,,,,,,,,,,,,,,,
68318,64,2023-10-04_09h41.56.974,e1,2022.2.5,MacIntel,60.0024001,105,264,pilot,,,,,k,0,1.5464,0,25,25,25,1,furina,Adj,008-furina.mp3,disadvantaged,equal,-0.3,0,0.3,0,s,,,,,,,,,,,,,,,,,,,,
68318,64,2023-10-04_09h41.56.974,e1,2022.2.5,MacIntel,60.0024001,105,264,pilot,,,,,k,0,2.1421,0,26,26,26,1,hoka,Noun,075-hoka.mp3,other,flower,-0.3,0,0.3,0,s,,,,,,,,,,,,,,,,,,,,
68318,64,2023-10-04_09h41.56.974,e1,2022.2.5,MacIntel,60.0024001,105,264,pilot,,,,,s,1,0.7212,0,27,27,27,1,kitanai,Adj,012-kitanai.mp3,dirty,rich,-0.3,0,0.3,0,s,,,,,,,,,,,,,,,,,,,,
68318,64,2023-10-04_09h41.56.974,e1,2022.2.5,MacIntel,60.0024001,105,264,pilot,,,,,k,1,1.6212,0,28,28,28,1,toboshii,Adj,011-toboshii.mp3,poor,familiar,0.3,0,-0.3,0,k,,,,,,,,,,,,,,,,,,,,
68318,64,2023-10-04_09h41.56.974,e1,2022.2.5,MacIntel,60.0024001,105,264,pilot,,,,,k,0,1.3834,0,29,29,29,1,katachi,Noun,059-katachi.mp3,form,tears,-0.3,0,0.3,0,s,,,,,,,,,,,,,,,,,,,,
68318,64,2023-10-04_09h41.56.974,e1,2022.2.5,MacIntel,60.0024001,105,264,pilot,,,,,k,1,1.6708,0,30,30,30,1,kuchi,Noun,067-kuchi.mp3,mouth,dream,0.3,0,-0.3,0,k,,,,,,,,,,,,,,,,,,,,
68318,64,2023-10-04_09h41.56.974,e1,2022.2.5,MacIntel,60.0024001,105,264,pilot,,,,,s,0,1.2148,0,31,31,31,1,chikaku,Noun,073-chikaku.mp3,vicinity,friend,0.3,0,-0.3,0,k,,,,,,,,,,,,,,,,,,,,
68318,64,2023-10-04_09h41.56.974,e1,2022.2.5,MacIntel,60.0024001,105,264,pilot,,,,,k,0,1.0963,0,32,32,32,1,hiku,Verb,094-hiku.mp3,to pull,to escape,-0.3,0,0.3,0,s,,,,,,,,,,,,,,,,,,,,
68318,64,2023-10-04_09h41.56.974,e1,2022.2.5,MacIntel,60.0024001,105,264,pilot,,,,,s,0,1.612,0,33,33,33,1,hitotsu,Noun,068-hitotsu.mp3,one,festival,0.3,0,-0.3,0,k,,,,,,,,,,,,,,,,,,,,
68318,64,2023-10-04_09h41.56.974,e1,2022.2.5,MacIntel,60.0024001,105,264,pilot,,,,,k,1,2.0687,0,34,34,34,1,tsuma,Noun,053-tsuma.mp3,wife,long time ago,0.3,0,-0.3,0,k,,,,,,,,,,,,,,,,,,,,
68318,64,2023-10-04_09h41.56.974,e1,2022.2.5,MacIntel,60.0024001,105,264,pilot,,,,,k,1,2.3932,0,35,35,35,1,goshagosha,Mim,034-goshagosha.mp3,messy,bowing lightly and casually,0.3,0,-0.3,0,k,,,,,,,,,,,,,,,,,,,,
68318,64,2023-10-04_09h41.56.974,e1,2022.2.5,MacIntel,60.0024001,105,264,pilot,,,,,k,0,0.937,0,36,36,36,1,sakana,Noun,057-sakana.mp3,fish,letter (as in alphabet),-0.3,0,0.3,0,s,,,,,,,,,,,,,,,,,,,,
68318,64,2023-10-04_09h41.56.974,e1,2022.2.5,MacIntel,60.0024001,105,264,pilot,,,,,k,0,1.8116,0,37,37,37,1,mitsumeru,Verb,088-mitsumeru.mp3,to stare,to read,-0.3,0,0.3,0,s,,,,,,,,,,,,,,,,,,,,
68318,64,2023-10-04_09h41.56.974,e1,2022.2.5,MacIntel,60.0024001,105,264,pilot,,,,,k,1,1.0934,0,38,38,38,1,tegaruna,Adj,002-tegaruna.mp3,simple,skillful,0.3,0,-0.3,0,k,,,,,,,,,,,,,,,,,,,,
68318,64,2023-10-04_09h41.56.974,e1,2022.2.5,MacIntel,60.0024001,105,264,pilot,,,,,s,0,0.769,0,39,39,39,1,gusha,Mim,046-gusha.mp3,sound of something being squashed,"moving like a chick, chick-like",0.3,0,-0.3,0,k,,,,,,,,,,,,,,,,,,,,
68318,64,2023-10-04_09h41.56.974,e1,2022.2.5,MacIntel,60.0024001,105,264,pilot,,,,,k,0,1.1933,0,40,40,40,1,kotoshi,Noun,064-kotoshi.mp3,this year,conversation,-0.3,0,0.3,0,s,,,,,,,,,,,,,,,,,,,,
68318,64,2023-10-04_09h41.56.974,e1,2022.2.5,MacIntel,60.0024001,105,264,pilot,,,,,s,1,0.3062,0,41,41,41,1,tegami,Noun,051-tegami.mp3,letter (as in mail),light,-0.3,0,0.3,0,s,,,,,,,,,,,,,,,,,,,,
68318,64,2023-10-04_09h41.56.974,e1,2022.2.5,MacIntel,60.0024001,105,264,pilot,,,,,k,1,0.8463,0,42,42,42,1,marena,Adj,005-marena.mp3,rare,flat,0.3,0,-0.3,0,k,,,,,,,,,,,,,,,,,,,,
68318,64,2023-10-04_09h41.56.974,e1,2022.2.5,MacIntel,60.0024001,105,264,pilot,,,,,k,0,0.894,0,43,43,43,1,shiraberu,Verb,089-shiraberu.mp3,to look up,to jump,-0.3,0,0.3,0,s,,,,,,,,,,,,,,,,,,,,
68318,64,2023-10-04_09h41.56.974,e1,2022.2.5,MacIntel,60.0024001,105,264,pilot,,,,,s,0,0.8319,0,44,44,44,1,jimoto,Noun,058-jimoto.mp3,local,word,0.3,0,-0.3,0,k,,,,,,,,,,,,,,,,,,,,
68318,64,2023-10-04_09h41.56.974,e1,2022.2.5,MacIntel,60.0024001,105,264,pilot,,,,,s,1,1.1023,0,45,45,45,1,haha,Noun,070-haha.mp3,mother,past,-0.3,0,0.3,0,s,,,,,,,,,,,,,,,,,,,,
68318,64,2023-10-04_09h41.56.974,e1,2022.2.5,MacIntel,60.0024001,105,264,pilot,,,,,s,0,1.5533,0,46,46,46,1,shobon,Mim,044-shobon.mp3,"downheartedly, dejectedly",sound of something little falling or moving,0.3,0,-0.3,0,k,,,,,,,,,,,,,,,,,,,,
68318,64,2023-10-04_09h41.56.974,e1,2022.2.5,MacIntel,60.0024001,105,264,pilot,,,,,k,0,1.2094,0,47,47,47,1,tsuyoi,Adj,018-tsuyoi.mp3,strong,smelly,-0.3,0,0.3,0,s,,,,,,,,,,,,,,,,,,,,
68318,64,2023-10-04_09h41.56.974,e1,2022.2.5,MacIntel,60.0024001,105,264,pilot,,,,,k,0,1.4253,0,48,48,48,1,betsuna,Adj,006-betsuna.mp3,another,wide,-0.3,0,0.3,0,s,,,,,,,,,,,,,,,,,,,,
68318,64,2023-10-04_09h41.56.974,e1,2022.2.5,MacIntel,60.0024001,105,264,pilot,,,,,k,1,1.7497,0,49,49,49,1,kurai,Adj,016-kurai.mp3,dark,early,0.3,0,-0.3,0,k,,,,,,,,,,,,,,,,,,,,
68318,64,2023-10-04_09h41.56.974,e1,2022.2.5,MacIntel,60.0024001,105,264,pilot,,,,,,,,,,,,,,,,,,,,,,,30,right,3.669,,,,,,,,,,,,,,,,,
68318,64,2023-10-04_09h41.56.974,e1,2022.2.5,MacIntel,60.0024001,105,264,pilot,,,,,,,,,,,,,,,,,,,,,,,,,,female,right,1.4256,,,,,,,,,,,,,,
68318,64,2023-10-04_09h41.56.974,e1,2022.2.5,MacIntel,60.0024001,105,264,pilot,,,,,,,,,,,,,,,,,,,,,,,,,,,,,english,right,1.2164,,,,,,,,,,,
68318,64,2023-10-04_09h41.56.974,e1,2022.2.5,MacIntel,60.0024001,105,264,pilot,,,,,,,,,,,,,,,,,,,,,,,,,,,,,,,,none,right,2.4333,,,,,,,,
68318,64,2023-10-04_09h41.56.974,e1,2022.2.5,MacIntel,60.0024001,105,264,pilot,,,,,,,,,,,,,,,,,,,,,,,,,,,,,,,,,,,1,4.5795,right,1.8266,,,,
68318,64,2023-10-04_09h41.56.974,e1,2022.2.5,MacIntel,60.0024001,105,264,pilot,,,,,,,,,,,,,,,,,,,,,,,,,,,,,,,,,,,,,,,1,2.912,right,1.0676
68318,64,2023-10-04_09h41.56.974,e1,2022.2.5,MacIntel,60.0024001,105,264,pilot,,,,,,,,,,,,,,,,,,,,,,,,,,,,,,,,,,,,,,,,,,
﻿session,group,date,expName,psychopyVersion,OS,frameRate,participant,expt,status,key_resp.keys,key_resp.rt,key_resp_5.keys,key_resp_5.rt,key_resp_2.keys,key_resp_2.corr,key_resp_2.rt,trials.thisRepN,trials.thisTrialN,trials.thisN,trials.thisIndex,trials.ran,Word,WordClass,FilePath,Target,Foil,TargetPositionX,TargetPositionY,FoilPositionX,FoilPositionY,CorrectKey,textbox.text,enter.keys,enter.rt,textbox_2.text,enter_2.keys,enter_2.rt,textbox_3.text,enter_3.keys,enter_3.rt,textbox_4.text,enter_4.keys,enter_4.rt,slider.response,slider.rt,key_resp_3.keys,key_resp_3.rt,slider_2.response,slider_2.rt,key_resp_4.keys,key_resp_4.rt
68319,35,2023-10-04_09h41.59.353,e1,2022.2.5,Win32,119.9040767,106,264,pilot,,,,,,,,,,,,,,,,,,,,,,,,,,,,,,,,,,,,,,,,,,
68319,35,2023-10-04_09h41.59.353,e1,2022.2.5,Win32,119.9040767,106,264,pilot,k,19.5256,,,,,,,,,,,,,,,,,,,,,,,,,,,,,,,,,,,,,,,,
68319,35,2023-10-04_09h41.59.353,e1,2022.2.5,Win32,119.9040767,106,264,pilot,,,k,7.8728,,,,,,,,,,,,,,,,,,,,,,,,,,,,,,,,,,,,,,
68319,35,2023-10-04_09h41.59.353,e1,2022.2.5,Win32,119.9040767,106,264,pilot,,,,,s,1,3.8038,0,0,0,0,1,Left,AttentionCheck,Check_Left.mp3,to compare,to trust,-0.3,0,0.3,0,s,,,,,,,,,,,,,,,,,,,,
68319,35,2023-10-04_09h41.59.353,e1,2022.2.5,Win32,119.9040767,106,264,pilot,,,,,s,1,3.3113,0,1,1,1,1,wasawasa,Mim,048-wasawasa.mp3,restless,"moving like a chick, chick-like",-0.3,0,0.3,0,s,,,,,,,,,,,,,,,,,,,,
68319,35,2023-10-04_09h41.59.353,e1,2022.2.5,Win32,119.9040767,106,264,pilot,,,,,s,0,3.3628,0,2,2,2,1,matomeru,Verb,095-matomeru.mp3,to summarize,to protect,0.3,0,-0.3,0,k,,,,,,,,,,,,,,,,,,,,
68319,35,2023-10-04_09h41.59.353,e1,2022.2.5,Win32,119.9040767,106,264,pilot,,,,,k,0,4.6042,0,3,3,3,1,noru,Verb,093-noru.mp3,to get on,to die,-0.3,0,0.3,0,s,,,,,,,,,,,,,,,,,,,,
68319,35,2023-10-04_09h41.59.353,e1,2022.2.5,Win32,119.9040767,106,264,pilot,,,,,k,0,3.007,0,4,4,4,1,shiroi,Adj,023-shiroi.mp3,white,dark,-0.3,0,0.3,0,s,,,,,,,,,,,,,,,,,,,,
68319,35,2023-10-04_09h41.59.353,e1,2022.2.5,Win32,119.9040767,106,264,pilot,,,,,s,1,2.8556,0,5,5,5,1,miseru,Verb,083-miseru.mp3,to show,to define,-0.3,0,0.3,0,s,,,,,,,,,,,,,,,,,,,,
68319,35,2023-10-04_09h41.59.353,e1,2022.2.5,Win32,119.9040767,106,264,pilot,,,,,k,1,3.4755,0,6,6,6,1,tobu,Verb,099-tobu.mp3,to jump,to look up,0.3,0,-0.3,0,k,,,,,,,,,,,,,,,,,,,,
68319,35,2023-10-04_09h41.59.353,e1,2022.2.5,Win32,119.9040767,106,264,pilot,,,,,s,1,4.5034,0,7,7,7,1,wasureru,Verb,085-wasureru.mp3,to forget,to start,-0.3,0,0.3,0,s,,,,,,,,,,,,,,,,,,,,
68319,35,2023-10-04_09h41.59.353,e1,2022.2.5,Win32,119.9040767,106,264,pilot,,,,,s,1,14.8281,0,8,8,8,1,kotori,Mim,036-kotori.mp3,sound of something little falling or moving,sound of something making firm contact with a flat surface,-0.3,0,0.3,0,s,,,,,,,,,,,,,,,,,,,,
68319,35,2023-10-04_09h41.59.353,e1,2022.2.5,Win32,119.9040767,106,264,pilot,,,,,k,1,5.5815,0,9,9,9,1,tegami,Noun,051-tegami.mp3,letter (as in mail),water,0.3,0,-0.3,0,k,,,,,,,,,,,,,,,,,,,,
68319,35,2023-10-04_09h41.59.353,e1,2022.2.5,Win32,119.9040767,106,264,pilot,,,,,s,0,1.7136,0,10,10,10,1,fukameru,Verb,079-fukameru.mp3,to deepen,to consist,0.3,0,-0.3,0,k,,,,,,,,,,,,,,,,,,,,
68319,35,2023-10-04_09h41.59.353,e1,2022.2.5,Win32,119.9040767,106,264,pilot,,,,,s,1,4.1444,0,11,11,11,1,kasanaru,Verb,087-kasanaru.mp3,to overlap,to wrong,-0.3,0,0.3,0,s,,,,,,,,,,,,,,,,,,,,
68319,35,2023-10-04_09h41.59.353,e1,2022.2.5,Win32,119.9040767,106,264,pilot,,,,,s,0,4.4636,0,12,12,12,1,pekon,Mim,030-pekon.mp3,bowing lightly and casually,"soft and limp; or mumbling, talking with food in mouth",0.3,0,-0.3,0,k,,,,,,,,,,,,,,,,,,,,
68319,35,2023-10-04_09h41.59.353,e1,2022.2.5,Win32,119.9040767,106,264,pilot,,,,,k,1,3.1438,0,13,13,13,1,namida,Noun,063-namida.mp3,tears,light,0.3,0,-0.3,0,k,,,,,,,,,,,,,,,,,,,,
68319,35,2023-10-04_09h41.59.353,e1,2022.2.5,Win32,119.9040767,106,264,pilot,,,,,k,0,2.8981,0,14,14,14,1,samui,Adj,021-samui.mp3,cold,equal,-0.3,0,0.3,0,s,,,,,,,,,,,,,,,,,,,,
68319,35,2023-10-04_09h41.59.353,e1,2022.2.5,Win32,119.9040767,106,264,pilot,,,,,s,1,4.1672,0,15,15,15,1,tegaruna,Adj,002-tegaruna.mp3,simple,serious,-0.3,0,0.3,0,s,,,,,,,,,,,,,,,,,,,,
68319,35,2023-10-04_09h41.59.353,e1,2022.2.5,Win32,119.9040767,106,264,pilot,,,,,s,1,2.1904,0,16,16,16,1,karari,Mim,026-karari.mp3,dry,wander,-0.3,0,0.3,0,s,,,,,,,,,,,,,,,,,,,,
68319,35,2023-10-04_09h41.59.353,e1,2022.2.5,Win32,119.9040767,106,264,pilot,,,,,k,0,3.9369,0,17,17,17,1,tsuratsura,Mim,029-tsuratsura.mp3,spontaneously,empty,-0.3,0,0.3,0,s,,,,,,,,,,,,,,,,,,,,
68319,35,2023-10-04_09h41.59.353,e1,2022.2.5,Win32,119.9040767,106,264,pilot,,,,,k,1,2.1319,0,18,18,18,1,kitanai,Adj,012-kitanai.mp3,dirty,disadvantaged,0.3,0,-0.3,0,k,,,,,,,,,,,,,,,,,,,,
68319,35,2023-10-04_09h41.59.353,e1,2022.2.5,Win32,119.9040767,106,264,pilot,,,,,s,0,7.7755,0,19,19,19,1,kasaneru,Verb,100-kasaneru.mp3,to stack,to speak to oneself in a quiet voice,0.3,0,-0.3,0,k,,,,,,,,,,,,,,,,,,,,
68319,35,2023-10-04_09h41.59.353,e1,2022.2.5,Win32,119.9040767,106,264,pilot,,,,,s,0,1.9434,0,20,20,20,1,hanashi,Noun,055-hanashi.mp3,conversation,limit,0.3,0,-0.3,0,k,,,,,,,,,,,,,,,,,,,,
68319,35,2023-10-04_09h41.59.353,e1,2022.2.5,Win32,119.9040767,106,264,pilot,,,,,k,0,2.2987,0,21,21,21,1,yobu,Verb,076-yobu.mp3,to call,to read,-0.3,0,0.3,0,s,,,,,,,,,,,,,,,,,,,,
68319,35,2023-10-04_09h41.59.353,e1,2022.2.5,Win32,119.9040767,106,264,pilot,,,,,s,0,4.1565,0,22,22,22,1,kotoba,Noun,072-kotoba.mp3,word,friend,0.3,0,-0.3,0,k,,,,,,,,,,,,,,,,,,,,
68319,35,2023-10-04_09h41.59.353,e1,2022.2.5,Win32,119.9040767,106,264,pilot,,,,,s,0,2.1073,0,23,23,23,1,gakun,Mim,039-gakun.mp3,dropping one's head or shoulders,messy,0.3,0,-0.3,0,k,,,,,,,,,,,,,,,,,,,,
68319,35,2023-10-04_09h41.59.353,e1,2022.2.5,Win32,119.9040767,106,264,pilot,,,,,s,1,3.7392,0,24,24,24,1,mijikana,Adj,003-mijikana.mp3,familiar,wide,-0.3,0,0.3,0,s,,,,,,,,,,,,,,,,,,,,
68319,35,2023-10-04_09h41.59.353,e1,2022.2.5,Win32,119.9040767,106,264,pilot,,,,,k,0,4.6062,0,25,25,25,1,matsuri,Noun,065-matsuri.mp3,festival,flower,-0.3,0,0.3,0,s,,,,,,,,,,,,,,,,,,,,
68319,35,2023-10-04_09h41.59.353,e1,2022.2.5,Win32,119.9040767,106,264,pilot,,,,,k,0,2.4843,0,26,26,26,1,pikari,Mim,031-pikari.mp3,"with a flash, brightly, dazzlingly",with a bang,-0.3,0,0.3,0,s,,,,,,,,,,,,,,,,,,,,
68319,35,2023-10-04_09h41.59.353,e1,2022.2.5,Win32,119.9040767,106,264,pilot,,,,,s,1,4.2351,0,27,27,27,1,yutakana,Adj,014-yutakana.mp3,rich,pure,-0.3,0,0.3,0,s,,,,,,,,,,,,,,,,,,,,
68319,35,2023-10-04_09h41.59.353,e1,2022.2.5,Win32,119.9040767,106,264,pilot,,,,,k,1,1.4078,0,28,28,28,1,yuku,Verb,077-yuku.mp3,to go,to pull,0.3,0,-0.3,0,k,,,,,,,,,,,,,,,,,,,,
68319,35,2023-10-04_09h41.59.353,e1,2022.2.5,Win32,119.9040767,106,264,pilot,,,,,k,0,5.6723,0,29,29,29,1,gusha,Mim,046-gusha.mp3,sound of something being squashed,sluggishly,-0.3,0,0.3,0,s,,,,,,,,,,,,,,,,,,,,
68319,35,2023-10-04_09h41.59.353,e1,2022.2.5,Win32,119.9040767,106,264,pilot,,,,,s,1,1.8356,0,30,30,30,1,kuchi,Noun,067-kuchi.mp3,mouth,local,-0.3,0,0.3,0,s,,,,,,,,,,,,,,,,,,,,
68319,35,2023-10-04_09h41.59.353,e1,2022.2.5,Win32,119.9040767,106,264,pilot,,,,,s,1,2.2068,0,31,31,31,1,nemui,Adj,024-nemui.mp3,sleepy,bad at,-0.3,0,0.3,0,s,,,,,,,,,,,,,,,,,,,,
68319,35,2023-10-04_09h41.59.353,e1,2022.2.5,Win32,119.9040767,106,264,pilot,,,,,k,1,3.3483,0,32,32,32,1,hayamena,Adj,001-hayamena.mp3,early,another,0.3,0,-0.3,0,k,,,,,,,,,,,,,,,,,,,,
68319,35,2023-10-04_09h41.59.353,e1,2022.2.5,Win32,119.9040767,106,264,pilot,,,,,k,0,2.9616,0,33,33,33,1,katsukatsu,Mim,033-katsukatsu.mp3,"barely, scraping by",too much makeup,-0.3,0,0.3,0,s,,,,,,,,,,,,,,,,,,,,
68319,35,2023-10-04_09h41.59.353,e1,2022.2.5,Win32,119.9040767,106,264,pilot,,,,,k,0,3.5836,0,34,34,34,1,takumina,Adj,004-takumina.mp3,skillful,rare,-0.3,0,0.3,0,s,,,,,,,,,,,,,,,,,,,,
68319,35,2023-10-04_09h41.59.353,e1,2022.2.5,Win32,119.9040767,106,264,pilot,,,,,k,1,4.2525,0,35,35,35,1,tsuma,Noun,053-tsuma.mp3,wife,this year,0.3,0,-0.3,0,k,,,,,,,,,,,,,,,,,,,,
68319,35,2023-10-04_09h41.59.353,e1,2022.2.5,Win32,119.9040767,106,264,pilot,,,,,s,1,4.5449,0,36,36,36,1,futsufutsu,Mim,047-futsufutsu.mp3,simmer,sound of stabbing,-0.3,0,0.3,0,s,,,,,,,,,,,,,,,,,,,,
68319,35,2023-10-04_09h41.59.353,e1,2022.2.5,Win32,119.9040767,106,264,pilot,,,,,k,1,3.3763,0,37,37,37,1,Right,AttentionCheck,Check_Right.mp3,shape,body,0.3,0,-0.3,0,k,,,,,,,,,,,,,,,,,,,,
68319,35,2023-10-04_09h41.59.353,e1,2022.2.5,Win32,119.9040767,106,264,pilot,,,,,k,0,2.4901,0,38,38,38,1,hiratai,Adj,022-hiratai.mp3,flat,awkward,-0.3,0,0.3,0,s,,,,,,,,,,,,,,,,,,,,
68319,35,2023-10-04_09h41.59.353,e1,2022.2.5,Win32,119.9040767,106,264,pilot,,,,,k,1,4.2771,0,39,39,39,1,haha,Noun,070-haha.mp3,mother,long time ago,0.3,0,-0.3,0,k,,,,,,,,,,,,,,,,,,,,
68319,35,2023-10-04_09h41.59.353,e1,2022.2.5,Win32,119.9040767,106,264,pilot,,,,,k,1,2.8923,0,40,40,40,1,moji,Noun,071-moji.mp3,letter (as in alphabet),land,0.3,0,-0.3,0,k,,,,,,,,,,,,,,,,,,,,
68319,35,2023-10-04_09h41.59.353,e1,2022.2.5,Win32,119.9040767,106,264,pilot,,,,,s,0,3.4233,0,41,41,41,1,hirogeru,Verb,097-hirogeru.mp3,to spread,to stare,0.3,0,-0.3,0,k,,,,,,,,,,,,,,,,,,,,
68319,35,2023-10-04_09h41.59.353,e1,2022.2.5,Win32,119.9040767,106,264,pilot,,,,,s,0,4.5636,0,42,42,42,1,chikaku,Noun,073-chikaku.mp3,vicinity,one,0.3,0,-0.3,0,k,,,,,,,,,,,,,,,,,,,,
68319,35,2023-10-04_09h41.59.353,e1,2022.2.5,Win32,119.9040767,106,264,pilot,,,,,s,1,7.2783,0,43,43,43,1,marui,Adj,025-marui.mp3,round,smelly,-0.3,0,0.3,0,s,,,,,,,,,,,,,,,,,,,,
68319,35,2023-10-04_09h41.59.353,e1,2022.2.5,Win32,119.9040767,106,264,pilot,,,,,k,0,2.3953,0,44,44,44,1,hoka,Noun,075-hoka.mp3,other,fish,-0.3,0,0.3,0,s,,,,,,,,,,,,,,,,,,,,
68319,35,2023-10-04_09h41.59.353,e1,2022.2.5,Win32,119.9040767,106,264,pilot,,,,,k,0,2.7558,0,45,45,45,1,kako,Noun,052-kako.mp3,past,form,-0.3,0,0.3,0,s,,,,,,,,,,,,,,,,,,,,
68319,35,2023-10-04_09h41.59.353,e1,2022.2.5,Win32,119.9040767,106,264,pilot,,,,,k,0,5.0369,0,46,46,46,1,toboshii,Adj,011-toboshii.mp3,poor,strong,-0.3,0,0.3,0,s,,,,,,,,,,,,,,,,,,,,
68319,35,2023-10-04_09h41.59.353,e1,2022.2.5,Win32,119.9040767,106,264,pilot,,,,,s,0,1.6556,0,47,47,47,1,shobon,Mim,044-shobon.mp3,"downheartedly, dejectedly",fat,0.3,0,-0.3,0,k,,,,,,,,,,,,,,,,,,,,
68319,35,2023-10-04_09h41.59.353,e1,2022.2.5,Win32,119.9040767,106,264,pilot,,,,,k,0,2.5706,0,48,48,48,1,nukeru,Verb,086-nukeru.mp3,to escape,to accompany,-0.3,0,0.3,0,s,,,,,,,,,,,,,,,,,,,,
68319,35,2023-10-04_09h41.59.353,e1,2022.2.5,Win32,119.9040767,106,264,pilot,,,,,k,0,8.7299,0,49,49,49,1,chirochiro,Mim,041-chirochiro.mp3,"flicker of light, trickle of water",gently falling,-0.3,0,0.3,0,s,,,,,,,,,,,,,,,,,,,,
68319,35,2023-10-04_09h41.59.353,e1,2022.2.5,Win32,119.9040767,106,264,pilot,,,,,,,,,,,,,,,,,,,,,,,37,right,3.637,,,,,,,,,,,,,,,,,
68319,35,2023-10-04_09h41.59.353,e1,2022.2.5,Win32,119.9040767,106,264,pilot,,,,,,,,,,,,,,,,,,,,,,,,,,m,right,1.0716,,,,,,,,,,,,,,
68319,35,2023-10-04_09h41.59.353,e1,2022.2.5,Win32,119.9040767,106,264,pilot,,,,,,,,,,,,,,,,,,,,,,,,,,,,,English,right,2.7003,,,,,,,,,,,
68319,35,2023-10-04_09h41.59.353,e1,2022.2.5,Win32,119.9040767,106,264,pilot,,,,,,,,,,,,,,,,,,,,,,,,,,,,,,,,None,right,1.7233,,,,,,,,
68319,35,2023-10-04_09h41.59.353,e1,2022.2.5,Win32,119.9040767,106,264,pilot,,,,,,,,,,,,,,,,,,,,,,,,,,,,,,,,,,,1,7.3186,right,1.7343,,,,
68319,35,2023-10-04_09h41.59.353,e1,2022.2.5,Win32,119.9040767,106,264,pilot,,,,,,,,,,,,,,,,,,,,,,,,,,,,,,,,,,,,,,,2,2.6506,right,1.7169
68319,35,2023-10-04_09h41.59.353,e1,2022.2.5,Win32,119.9040767,106,264,pilot,,,,,,,,,,,,,,,,,,,,,,,,,,,,,,,,,,,,,,,,,,
﻿session,group,date,expName,psychopyVersion,OS,frameRate,participant,expt,status,key_resp.keys,key_resp.rt,key_resp_5.keys,key_resp_5.rt,key_resp_2.keys,key_resp_2.corr,key_resp_2.rt,trials.thisRepN,trials.thisTrialN,trials.thisN,trials.thisIndex,trials.ran,Word,WordClass,FilePath,Target,Foil,TargetPositionX,TargetPositionY,FoilPositionX,FoilPositionY,CorrectKey,textbox.text,enter.keys,enter.rt,textbox_2.text,enter_2.keys,enter_2.rt,textbox_3.text,enter_3.keys,enter_3.rt,textbox_4.text,enter_4.keys,enter_4.rt,slider.response,slider.rt,key_resp_3.keys,key_resp_3.rt,slider_2.response,slider_2.rt,key_resp_4.keys,key_resp_4.rt
68320,88,2023-10-04_09h42.07.896,e1,2022.2.5,Win32,72.07207207,107,264,pilot,,,,,,,,,,,,,,,,,,,,,,,,,,,,,,,,,,,,,,,,,,
68320,88,2023-10-04_09h42.07.896,e1,2022.2.5,Win32,72.07207207,107,264,pilot,s,20.3209,,,,,,,,,,,,,,,,,,,,,,,,,,,,,,,,,,,,,,,,
68320,88,2023-10-04_09h42.07.896,e1,2022.2.5,Win32,72.07207207,107,264,pilot,,,s,9.6517,,,,,,,,,,,,,,,,,,,,,,,,,,,,,,,,,,,,,,
68320,88,2023-10-04_09h42.07.896,e1,2022.2.5,Win32,72.07207207,107,264,pilot,,,,,s,1,8.0335,0,0,0,0,1,Left,AttentionCheck,Check_Left.mp3,to compare,to trust,-0.3,0,0.3,0,s,,,,,,,,,,,,,,,,,,,,
68320,88,2023-10-04_09h42.07.896,e1,2022.2.5,Win32,72.07207207,107,264,pilot,,,,,k,0,6.5848,0,1,1,1,1,petan,Mim,043-petan.mp3,sound of something making firm contact with a flat surface,spongy,-0.3,0,0.3,0,s,,,,,,,,,,,,,,,,,,,,
68320,88,2023-10-04_09h42.07.896,e1,2022.2.5,Win32,72.07207207,107,264,pilot,,,,,k,1,1.433,0,2,2,2,1,hitotsu,Noun,068-hitotsu.mp3,one,festival,0.3,0,-0.3,0,k,,,,,,,,,,,,,,,,,,,,
68320,88,2023-10-04_09h42.07.896,e1,2022.2.5,Win32,72.07207207,107,264,pilot,,,,,s,1,2.1249,0,3,3,3,1,jimoto,Noun,058-jimoto.mp3,local,water,-0.3,0,0.3,0,s,,,,,,,,,,,,,,,,,,,,
68320,88,2023-10-04_09h42.07.896,e1,2022.2.5,Win32,72.07207207,107,264,pilot,,,,,s,1,2.3476,0,4,4,4,1,chirochiro,Mim,041-chirochiro.mp3,"flicker of light, trickle of water",spontaneously,-0.3,0,0.3,0,s,,,,,,,,,,,,,,,,,,,,
68320,88,2023-10-04_09h42.07.896,e1,2022.2.5,Win32,72.07207207,107,264,pilot,,,,,k,0,6.964,0,5,5,5,1,kotori,Mim,036-kotori.mp3,sound of something little falling or moving,sound of something being squashed,-0.3,0,0.3,0,s,,,,,,,,,,,,,,,,,,,,
68320,88,2023-10-04_09h42.07.896,e1,2022.2.5,Win32,72.07207207,107,264,pilot,,,,,k,0,2.959,0,6,6,6,1,yutakana,Adj,014-yutakana.mp3,rich,familiar,-0.3,0,0.3,0,s,,,,,,,,,,,,,,,,,,,,
68320,88,2023-10-04_09h42.07.896,e1,2022.2.5,Win32,72.07207207,107,264,pilot,,,,,k,1,2.7153,0,7,7,7,1,toboshii,Adj,011-toboshii.mp3,poor,dark,0.3,0,-0.3,0,k,,,,,,,,,,,,,,,,,,,,
68320,88,2023-10-04_09h42.07.896,e1,2022.2.5,Win32,72.07207207,107,264,pilot,,,,,k,1,2.7907,0,8,8,8,1,hayamena,Adj,001-hayamena.mp3,early,old,0.3,0,-0.3,0,k,,,,,,,,,,,,,,,,,,,,
68320,88,2023-10-04_09h42.07.896,e1,2022.2.5,Win32,72.07207207,107,264,pilot,,,,,s,0,4.2911,0,9,9,9,1,chikaku,Noun,073-chikaku.mp3,vicinity,wife,0.3,0,-0.3,0,k,,,,,,,,,,,,,,,,,,,,
68320,88,2023-10-04_09h42.07.896,e1,2022.2.5,Win32,72.07207207,107,264,pilot,,,,,s,1,2.3329,0,10,10,10,1,hitoshii,Adj,007-hitoshii.mp3,equal,white,-0.3,0,0.3,0,s,,,,,,,,,,,,,,,,,,,,
68320,88,2023-10-04_09h42.07.896,e1,2022.2.5,Win32,72.07207207,107,264,pilot,,,,,s,1,2.7428,0,11,11,11,1,kimazui,Adj,017-kimazui.mp3,awkward,wide,-0.3,0,0.3,0,s,,,,,,,,,,,,,,,,,,,,
68320,88,2023-10-04_09h42.07.896,e1,2022.2.5,Win32,72.07207207,107,264,pilot,,,,,k,1,1.646,0,12,12,12,1,tegami,Noun,051-tegami.mp3,letter (as in mail),land,0.3,0,-0.3,0,k,,,,,,,,,,,,,,,,,,,,
68320,88,2023-10-04_09h42.07.896,e1,2022.2.5,Win32,72.07207207,107,264,pilot,,,,,s,1,2,0,13,13,13,1,naritatsu,Verb,081-naritatsu.mp3,to consist,to start,-0.3,0,0.3,0,s,,,,,,,,,,,,,,,,,,,,
68320,88,2023-10-04_09h42.07.896,e1,2022.2.5,Win32,72.07207207,107,264,pilot,,,,,k,0,2.4302,0,14,14,14,1,fukameru,Verb,079-fukameru.mp3,to deepen,to summarize,-0.3,0,0.3,0,s,,,,,,,,,,,,,,,,,,,,
68320,88,2023-10-04_09h42.07.896,e1,2022.2.5,Win32,72.07207207,107,264,pilot,,,,,k,0,1.8266,0,15,15,15,1,furina,Adj,008-furina.mp3,disadvantaged,flat,-0.3,0,0.3,0,s,,,,,,,,,,,,,,,,,,,,
68320,88,2023-10-04_09h42.07.896,e1,2022.2.5,Win32,72.07207207,107,264,pilot,,,,,k,1,4.3684,0,16,16,16,1,Right,AttentionCheck,Check_Right.mp3,shape,body,0.3,0,-0.3,0,k,,,,,,,,,,,,,,,,,,,,
68320,88,2023-10-04_09h42.07.896,e1,2022.2.5,Win32,72.07207207,107,264,pilot,,,,,s,1,1.6724,0,17,17,17,1,kotoba,Noun,072-kotoba.mp3,word,mother,-0.3,0,0.3,0,s,,,,,,,,,,,,,,,,,,,,
68320,88,2023-10-04_09h42.07.896,e1,2022.2.5,Win32,72.07207207,107,264,pilot,,,,,k,0,2.8748,0,18,18,18,1,yuku,Verb,077-yuku.mp3,to go,to speak to oneself in a quiet voice,-0.3,0,0.3,0,s,,,,,,,,,,,,,,,,,,,,
68320,88,2023-10-04_09h42.07.896,e1,2022.2.5,Win32,72.07207207,107,264,pilot,,,,,s,1,2.0073,0,19,19,19,1,mamoru,Verb,098-mamoru.mp3,to protect,to jump,-0.3,0,0.3,0,s,,,,,,,,,,,,,,,,,,,,
68320,88,2023-10-04_09h42.07.896,e1,2022.2.5,Win32,72.07207207,107,264,pilot,,,,,s,0,3.7982,0,20,20,20,1,kagiri,Noun,061-kagiri.mp3,limit,letter (as in alphabet),0.3,0,-0.3,0,k,,,,,,,,,,,,,,,,,,,,
68320,88,2023-10-04_09h42.07.896,e1,2022.2.5,Win32,72.07207207,107,264,pilot,,,,,s,1,2.389,0,21,21,21,1,mitsumeru,Verb,088-mitsumeru.mp3,to stare,to forget,-0.3,0,0.3,0,s,,,,,,,,,,,,,,,,,,,,
68320,88,2023-10-04_09h42.07.896,e1,2022.2.5,Win32,72.07207207,107,264,pilot,,,,,k,0,3.1245,0,22,22,22,1,tsuyoi,Adj,018-tsuyoi.mp3,strong,rare,-0.3,0,0.3,0,s,,,,,,,,,,,,,,,,,,,,
68320,88,2023-10-04_09h42.07.896,e1,2022.2.5,Win32,72.07207207,107,264,pilot,,,,,k,0,2.0138,0,23,23,23,1,miseru,Verb,083-miseru.mp3,to show,to look up,-0.3,0,0.3,0,s,,,,,,,,,,,,,,,,,,,,
68320,88,2023-10-04_09h42.07.896,e1,2022.2.5,Win32,72.07207207,107,264,pilot,,,,,k,1,1.3475,0,24,24,24,1,samui,Adj,021-samui.mp3,cold,bad at,0.3,0,-0.3,0,k,,,,,,,,,,,,,,,,,,,,
68320,88,2023-10-04_09h42.07.896,e1,2022.2.5,Win32,72.07207207,107,264,pilot,,,,,k,1,3.5552,0,25,25,25,1,goshagosha,Mim,034-goshagosha.mp3,messy,restless,0.3,0,-0.3,0,k,,,,,,,,,,,,,,,,,,,,
68320,88,2023-10-04_09h42.07.896,e1,2022.2.5,Win32,72.07207207,107,264,pilot,,,,,k,0,2.4653,0,26,26,26,1,noru,Verb,093-noru.mp3,to get on,to read,-0.3,0,0.3,0,s,,,,,,,,,,,,,,,,,,,,
68320,88,2023-10-04_09h42.07.896,e1,2022.2.5,Win32,72.07207207,107,264,pilot,,,,,k,0,4.4717,0,27,27,27,1,shobon,Mim,044-shobon.mp3,"downheartedly, dejectedly",simmer,-0.3,0,0.3,0,s,,,,,,,,,,,,,,,,,,,,
68320,88,2023-10-04_09h42.07.896,e1,2022.2.5,Win32,72.07207207,107,264,pilot,,,,,s,0,2.152,0,28,28,28,1,sadameru,Verb,096-sadameru.mp3,to define,to overlap,0.3,0,-0.3,0,k,,,,,,,,,,,,,,,,,,,,
68320,88,2023-10-04_09h42.07.896,e1,2022.2.5,Win32,72.07207207,107,264,pilot,,,,,s,1,2.9939,0,29,29,29,1,karari,Mim,026-karari.mp3,dry,too much makeup,-0.3,0,0.3,0,s,,,,,,,,,,,,,,,,,,,,
68320,88,2023-10-04_09h42.07.896,e1,2022.2.5,Win32,72.07207207,107,264,pilot,,,,,k,1,1.5995,0,30,30,30,1,hoka,Noun,075-hoka.mp3,other,flower,0.3,0,-0.3,0,k,,,,,,,,,,,,,,,,,,,,
68320,88,2023-10-04_09h42.07.896,e1,2022.2.5,Win32,72.07207207,107,264,pilot,,,,,k,0,1.5152,0,31,31,31,1,hirogeru,Verb,097-hirogeru.mp3,to spread,to pull,-0.3,0,0.3,0,s,,,,,,,,,,,,,,,,,,,,
68320,88,2023-10-04_09h42.07.896,e1,2022.2.5,Win32,72.07207207,107,264,pilot,,,,,s,1,2.5139,0,32,32,32,1,takumina,Adj,004-takumina.mp3,skillful,pure,-0.3,0,0.3,0,s,,,,,,,,,,,,,,,,,,,,
68320,88,2023-10-04_09h42.07.896,e1,2022.2.5,Win32,72.07207207,107,264,pilot,,,,,k,1,1.4651,0,33,33,33,1,harari,Mim,045-harari.mp3,gently falling,"barely, scraping by",0.3,0,-0.3,0,k,,,,,,,,,,,,,,,,,,,,
68320,88,2023-10-04_09h42.07.896,e1,2022.2.5,Win32,72.07207207,107,264,pilot,,,,,s,0,2.631,0,34,34,34,1,mukashi,Noun,054-mukashi.mp3,long time ago,dream,0.3,0,-0.3,0,k,,,,,,,,,,,,,,,,,,,,
68320,88,2023-10-04_09h42.07.896,e1,2022.2.5,Win32,72.07207207,107,264,pilot,,,,,k,0,1.1903,0,35,35,35,1,nakama,Noun,066-nakama.mp3,friend,mouth,-0.3,0,0.3,0,s,,,,,,,,,,,,,,,,,,,,
68320,88,2023-10-04_09h42.07.896,e1,2022.2.5,Win32,72.07207207,107,264,pilot,,,,,k,0,1.375,0,36,36,36,1,namida,Noun,063-namida.mp3,tears,form,-0.3,0,0.3,0,s,,,,,,,,,,,,,,,,,,,,
68320,88,2023-10-04_09h42.07.896,e1,2022.2.5,Win32,72.07207207,107,264,pilot,,,,,s,1,4.1727,0,37,37,37,1,kotoshi,Noun,064-kotoshi.mp3,this year,light,-0.3,0,0.3,0,s,,,,,,,,,,,,,,,,,,,,
68320,88,2023-10-04_09h42.07.896,e1,2022.2.5,Win32,72.07207207,107,264,pilot,,,,,s,1,1.4712,0,38,38,38,1,noberu,Verb,078-noberu.mp3,to express,to escape,-0.3,0,0.3,0,s,,,,,,,,,,,,,,,,,,,,
68320,88,2023-10-04_09h42.07.896,e1,2022.2.5,Win32,72.07207207,107,264,pilot,,,,,s,1,1.7346,0,39,39,39,1,tomonau,Verb,080-tomonau.mp3,to accompany,to die,-0.3,0,0.3,0,s,,,,,,,,,,,,,,,,,,,,
68320,88,2023-10-04_09h42.07.896,e1,2022.2.5,Win32,72.07207207,107,264,pilot,,,,,k,1,1.2917,0,40,40,40,1,tegaruna,Adj,002-tegaruna.mp3,simple,sleepy,0.3,0,-0.3,0,k,,,,,,,,,,,,,,,,,,,,
68320,88,2023-10-04_09h42.07.896,e1,2022.2.5,Win32,72.07207207,107,264,pilot,,,,,k,1,2.7774,0,41,41,41,1,kitanai,Adj,012-kitanai.mp3,dirty,smelly,0.3,0,-0.3,0,k,,,,,,,,,,,,,,,,,,,,
68320,88,2023-10-04_09h42.07.896,e1,2022.2.5,Win32,72.07207207,107,264,pilot,,,,,s,1,2.5418,0,42,42,42,1,kasaneru,Verb,100-kasaneru.mp3,to stack,to call,-0.3,0,0.3,0,s,,,,,,,,,,,,,,,,,,,,
68320,88,2023-10-04_09h42.07.896,e1,2022.2.5,Win32,72.07207207,107,264,pilot,,,,,s,1,4.3535,0,43,43,43,1,hiyohiyo,Mim,028-hiyohiyo.mp3,"moving like a chick, chick-like",dropping one's head or shoulders,-0.3,0,0.3,0,s,,,,,,,,,,,,,,,,,,,,
68320,88,2023-10-04_09h42.07.896,e1,2022.2.5,Win32,72.07207207,107,264,pilot,,,,,s,0,1.3471,0,44,44,44,1,burari,Mim,042-burari.mp3,wander,empty,0.3,0,-0.3,0,k,,,,,,,,,,,,,,,,,,,,
68320,88,2023-10-04_09h42.07.896,e1,2022.2.5,Win32,72.07207207,107,264,pilot,,,,,k,1,2.0582,0,45,45,45,1,pikari,Mim,031-pikari.mp3,"with a flash, brightly, dazzlingly",fat,0.3,0,-0.3,0,k,,,,,,,,,,,,,,,,,,,,
68320,88,2023-10-04_09h42.07.896,e1,2022.2.5,Win32,72.07207207,107,264,pilot,,,,,k,0,2.0066,0,46,46,46,1,marui,Adj,025-marui.mp3,round,serious,-0.3,0,0.3,0,s,,,,,,,,,,,,,,,,,,,,
68320,88,2023-10-04_09h42.07.896,e1,2022.2.5,Win32,72.07207207,107,264,pilot,,,,,s,1,1.8961,0,47,47,47,1,hanashi,Noun,055-hanashi.mp3,conversation,past,-0.3,0,0.3,0,s,,,,,,,,,,,,,,,,,,,,
68320,88,2023-10-04_09h42.07.896,e1,2022.2.5,Win32,72.07207207,107,264,pilot,,,,,s,1,2.125,0,48,48,48,1,nosori,Mim,027-nosori.mp3,sluggishly,bowing lightly and casually,-0.3,0,0.3,0,s,,,,,,,,,,,,,,,,,,,,
68320,88,2023-10-04_09h42.07.896,e1,2022.2.5,Win32,72.07207207,107,264,pilot,,,,,k,1,1.1855,0,49,49,49,1,gatan,Mim,049-gatan.mp3,with a bang,sound of stabbing,0.3,0,-0.3,0,k,,,,,,,,,,,,,,,,,,,,
68320,88,2023-10-04_09h42.07.896,e1,2022.2.5,Win32,72.07207207,107,264,pilot,,,,,,,,,,,,,,,,,,,,,,,31,right,1.7568,,,,,,,,,,,,,,,,,
68320,88,2023-10-04_09h42.07.896,e1,2022.2.5,Win32,72.07207207,107,264,pilot,,,,,,,,,,,,,,,,,,,,,,,,,,Male,right,4.7851,,,,,,,,,,,,,,
68320,88,2023-10-04_09h42.07.896,e1,2022.2.5,Win32,72.07207207,107,264,pilot,,,,,,,,,,,,,,,,,,,,,,,,,,,,,"Arabic, English",right,9.5988,,,,,,,,,,,
68320,88,2023-10-04_09h42.07.896,e1,2022.2.5,Win32,72.07207207,107,264,pilot,,,,,,,,,,,,,,,,,,,,,,,,,,,,,,,,"Russian, Spanish",right,18.6917,,,,,,,,
68320,88,2023-10-04_09h42.07.896,e1,2022.2.5,Win32,72.07207207,107,264,pilot,,,,,,,,,,,,,,,,,,,,,,,,,,,,,,,,,,,2,11.5644,right,2.3472,,,,
68320,88,2023-10-04_09h42.07.896,e1,2022.2.5,Win32,72.07207207,107,264,pilot,,,,,,,,,,,,,,,,,,,,,,,,,,,,,,,,,,,,,,,1,4.2819,right,0.8527
68320,88,2023-10-04_09h42.07.896,e1,2022.2.5,Win32,72.07207207,107,264,pilot,,,,,,,,,,,,,,,,,,,,,,,,,,,,,,,,,,,,,,,,,,
﻿session,group,date,expName,psychopyVersion,OS,frameRate,participant,expt,status,key_resp.keys,key_resp.rt,key_resp_5.keys,key_resp_5.rt,key_resp_2.keys,key_resp_2.corr,key_resp_2.rt,trials.thisRepN,trials.thisTrialN,trials.thisN,trials.thisIndex,trials.ran,Word,WordClass,FilePath,Target,Foil,TargetPositionX,TargetPositionY,FoilPositionX,FoilPositionY,CorrectKey,textbox.text,enter.keys,enter.rt,textbox_2.text,enter_2.keys,enter_2.rt,textbox_3.text,enter_3.keys,enter_3.rt,textbox_4.text,enter_4.keys,enter_4.rt,slider.response,slider.rt,key_resp_3.keys,key_resp_3.rt,slider_2.response,slider_2.rt,key_resp_4.keys,key_resp_4.rt
68321,90,2023-10-04_09h42.04.220,e1,2022.2.5,Linux x86_64,60.0348202,108,264,pilot,,,,,,,,,,,,,,,,,,,,,,,,,,,,,,,,,,,,,,,,,,
68321,90,2023-10-04_09h42.04.220,e1,2022.2.5,Linux x86_64,60.0348202,108,264,pilot,s,33.7492,,,,,,,,,,,,,,,,,,,,,,,,,,,,,,,,,,,,,,,,
68321,90,2023-10-04_09h42.04.220,e1,2022.2.5,Linux x86_64,60.0348202,108,264,pilot,,,s,4.2032,,,,,,,,,,,,,,,,,,,,,,,,,,,,,,,,,,,,,,
68321,90,2023-10-04_09h42.04.220,e1,2022.2.5,Linux x86_64,60.0348202,108,264,pilot,,,,,s,1,3.4729,0,0,0,0,1,Left,AttentionCheck,Check_Left.mp3,to compare,to trust,-0.3,0,0.3,0,s,,,,,,,,,,,,,,,,,,,,
68321,90,2023-10-04_09h42.04.220,e1,2022.2.5,Linux x86_64,60.0348202,108,264,pilot,,,,,s,1,3.4738,0,1,1,1,1,garan,Mim,038-garan.mp3,empty,"downheartedly, dejectedly",-0.3,0,0.3,0,s,,,,,,,,,,,,,,,,,,,,
68321,90,2023-10-04_09h42.04.220,e1,2022.2.5,Linux x86_64,60.0348202,108,264,pilot,,,,,k,0,1.0683,0,2,2,2,1,kitanai,Adj,012-kitanai.mp3,dirty,dark,-0.3,0,0.3,0,s,,,,,,,,,,,,,,,,,,,,
68321,90,2023-10-04_09h42.04.220,e1,2022.2.5,Linux x86_64,60.0348202,108,264,pilot,,,,,k,0,1.3389,0,3,3,3,1,nukeru,Verb,086-nukeru.mp3,to escape,to wrong,-0.3,0,0.3,0,s,,,,,,,,,,,,,,,,,,,,
68321,90,2023-10-04_09h42.04.220,e1,2022.2.5,Linux x86_64,60.0348202,108,264,pilot,,,,,s,0,3.2321,0,4,4,4,1,yobu,Verb,076-yobu.mp3,to call,to start,0.3,0,-0.3,0,k,,,,,,,,,,,,,,,,,,,,
68321,90,2023-10-04_09h42.04.220,e1,2022.2.5,Linux x86_64,60.0348202,108,264,pilot,,,,,k,0,0.9915,0,5,5,5,1,nigatena,Adj,009-nigatena.mp3,bad at,pure,-0.3,0,0.3,0,s,,,,,,,,,,,,,,,,,,,,
68321,90,2023-10-04_09h42.04.220,e1,2022.2.5,Linux x86_64,60.0348202,108,264,pilot,,,,,s,0,1.2609,0,6,6,6,1,debudebu,Mim,037-debudebu.mp3,fat,restless,0.3,0,-0.3,0,k,,,,,,,,,,,,,,,,,,,,
68321,90,2023-10-04_09h42.04.220,e1,2022.2.5,Linux x86_64,60.0348202,108,264,pilot,,,,,k,0,1.2367,0,7,7,7,1,namida,Noun,063-namida.mp3,tears,letter (as in alphabet),-0.3,0,0.3,0,s,,,,,,,,,,,,,,,,,,,,
68321,90,2023-10-04_09h42.04.220,e1,2022.2.5,Linux x86_64,60.0348202,108,264,pilot,,,,,k,1,1.6338,0,8,8,8,1,matsuri,Noun,065-matsuri.mp3,festival,past,0.3,0,-0.3,0,k,,,,,,,,,,,,,,,,,,,,
68321,90,2023-10-04_09h42.04.220,e1,2022.2.5,Linux x86_64,60.0348202,108,264,pilot,,,,,s,1,1.1671,0,9,9,9,1,tegami,Noun,051-tegami.mp3,letter (as in mail),form,-0.3,0,0.3,0,s,,,,,,,,,,,,,,,,,,,,
68321,90,2023-10-04_09h42.04.220,e1,2022.2.5,Linux x86_64,60.0348202,108,264,pilot,,,,,s,1,1.0004,0,10,10,10,1,mukashi,Noun,054-mukashi.mp3,long time ago,local,-0.3,0,0.3,0,s,,,,,,,,,,,,,,,,,,,,
68321,90,2023-10-04_09h42.04.220,e1,2022.2.5,Linux x86_64,60.0348202,108,264,pilot,,,,,k,1,0.8028,0,11,11,11,1,kuchi,Noun,067-kuchi.mp3,mouth,this year,0.3,0,-0.3,0,k,,,,,,,,,,,,,,,,,,,,
68321,90,2023-10-04_09h42.04.220,e1,2022.2.5,Linux x86_64,60.0348202,108,264,pilot,,,,,k,0,0.8696,0,12,12,12,1,yume,Noun,062-yume.mp3,dream,fish,-0.3,0,0.3,0,s,,,,,,,,,,,,,,,,,,,,
68321,90,2023-10-04_09h42.04.220,e1,2022.2.5,Linux x86_64,60.0348202,108,264,pilot,,,,,k,1,3.4089,0,13,13,13,1,Right,AttentionCheck,Check_Right.mp3,shape,body,0.3,0,-0.3,0,k,,,,,,,,,,,,,,,,,,,,
68321,90,2023-10-04_09h42.04.220,e1,2022.2.5,Linux x86_64,60.0348202,108,264,pilot,,,,,s,0,2.168,0,14,14,14,1,busuri,Mim,035-busuri.mp3,sound of stabbing,bowing lightly and casually,0.3,0,-0.3,0,k,,,,,,,,,,,,,,,,,,,,
68321,90,2023-10-04_09h42.04.220,e1,2022.2.5,Linux x86_64,60.0348202,108,264,pilot,,,,,k,1,2.1978,0,15,15,15,1,burari,Mim,042-burari.mp3,wander,"flicker of light, trickle of water",0.3,0,-0.3,0,k,,,,,,,,,,,,,,,,,,,,
68321,90,2023-10-04_09h42.04.220,e1,2022.2.5,Linux x86_64,60.0348202,108,264,pilot,,,,,s,1,1.2721,0,16,16,16,1,yuku,Verb,077-yuku.mp3,to go,to show,-0.3,0,0.3,0,s,,,,,,,,,,,,,,,,,,,,
68321,90,2023-10-04_09h42.04.220,e1,2022.2.5,Linux x86_64,60.0348202,108,264,pilot,,,,,k,1,1.4765,0,17,17,17,1,furui,Adj,013-furui.mp3,old,simple,0.3,0,-0.3,0,k,,,,,,,,,,,,,,,,,,,,
68321,90,2023-10-04_09h42.04.220,e1,2022.2.5,Linux x86_64,60.0348202,108,264,pilot,,,,,s,0,1.3216,0,18,18,18,1,kasaneru,Verb,100-kasaneru.mp3,to stack,to spread,0.3,0,-0.3,0,k,,,,,,,,,,,,,,,,,,,,
68321,90,2023-10-04_09h42.04.220,e1,2022.2.5,Linux x86_64,60.0348202,108,264,pilot,,,,,k,0,3.2328,0,19,19,19,1,funyafunya,Mim,050-funyafunya.mp3,"soft and limp; or mumbling, talking with food in mouth",dropping one's head or shoulders,-0.3,0,0.3,0,s,,,,,,,,,,,,,,,,,,,,
68321,90,2023-10-04_09h42.04.220,e1,2022.2.5,Linux x86_64,60.0348202,108,264,pilot,,,,,k,1,1.1257,0,20,20,20,1,yomu,Verb,091-yomu.mp3,to read,to forget,0.3,0,-0.3,0,k,,,,,,,,,,,,,,,,,,,,
68321,90,2023-10-04_09h42.04.220,e1,2022.2.5,Linux x86_64,60.0348202,108,264,pilot,,,,,s,0,1.7164,0,21,21,21,1,tsuratsura,Mim,029-tsuratsura.mp3,spontaneously,sound of something being squashed,0.3,0,-0.3,0,k,,,,,,,,,,,,,,,,,,,,
68321,90,2023-10-04_09h42.04.220,e1,2022.2.5,Linux x86_64,60.0348202,108,264,pilot,,,,,k,1,1.0482,0,22,22,22,1,shiroi,Adj,023-shiroi.mp3,white,poor,0.3,0,-0.3,0,k,,,,,,,,,,,,,,,,,,,,
68321,90,2023-10-04_09h42.04.220,e1,2022.2.5,Linux x86_64,60.0348202,108,264,pilot,,,,,s,1,0.8428,0,23,23,23,1,kotoba,Noun,072-kotoba.mp3,word,flower,-0.3,0,0.3,0,s,,,,,,,,,,,,,,,,,,,,
68321,90,2023-10-04_09h42.04.220,e1,2022.2.5,Linux x86_64,60.0348202,108,264,pilot,,,,,k,1,0.7423,0,24,24,24,1,haha,Noun,070-haha.mp3,mother,other,0.3,0,-0.3,0,k,,,,,,,,,,,,,,,,,,,,
68321,90,2023-10-04_09h42.04.220,e1,2022.2.5,Linux x86_64,60.0348202,108,264,pilot,,,,,s,0,1.3343,0,25,25,25,1,katsukatsu,Mim,033-katsukatsu.mp3,"barely, scraping by",too much makeup,0.3,0,-0.3,0,k,,,,,,,,,,,,,,,,,,,,
68321,90,2023-10-04_09h42.04.220,e1,2022.2.5,Linux x86_64,60.0348202,108,264,pilot,,,,,s,1,0.8854,0,26,26,26,1,tobu,Verb,099-tobu.mp3,to jump,to pull,-0.3,0,0.3,0,s,,,,,,,,,,,,,,,,,,,,
68321,90,2023-10-04_09h42.04.220,e1,2022.2.5,Linux x86_64,60.0348202,108,264,pilot,,,,,s,1,1.3214,0,27,27,27,1,hiyohiyo,Mim,028-hiyohiyo.mp3,"moving like a chick, chick-like",sluggishly,-0.3,0,0.3,0,s,,,,,,,,,,,,,,,,,,,,
68321,90,2023-10-04_09h42.04.220,e1,2022.2.5,Linux x86_64,60.0348202,108,264,pilot,,,,,s,1,0.8107,0,28,28,28,1,mizu,Noun,060-mizu.mp3,water,land,-0.3,0,0.3,0,s,,,,,,,,,,,,,,,,,,,,
68321,90,2023-10-04_09h42.04.220,e1,2022.2.5,Linux x86_64,60.0348202,108,264,pilot,,,,,k,0,0.8272,0,29,29,29,1,kasanaru,Verb,087-kasanaru.mp3,to overlap,to look up,-0.3,0,0.3,0,s,,,,,,,,,,,,,,,,,,,,
68321,90,2023-10-04_09h42.04.220,e1,2022.2.5,Linux x86_64,60.0348202,108,264,pilot,,,,,k,0,1.6415,0,30,30,30,1,tsubuyaku,Verb,090-tsubuyaku.mp3,to speak to oneself in a quiet voice,to protect,-0.3,0,0.3,0,s,,,,,,,,,,,,,,,,,,,,
68321,90,2023-10-04_09h42.04.220,e1,2022.2.5,Linux x86_64,60.0348202,108,264,pilot,,,,,k,1,1.0727,0,31,31,31,1,hayamena,Adj,001-hayamena.mp3,early,sleepy,0.3,0,-0.3,0,k,,,,,,,,,,,,,,,,,,,,
68321,90,2023-10-04_09h42.04.220,e1,2022.2.5,Linux x86_64,60.0348202,108,264,pilot,,,,,k,1,1.1602,0,32,32,32,1,marena,Adj,005-marena.mp3,rare,disadvantaged,0.3,0,-0.3,0,k,,,,,,,,,,,,,,,,,,,,
68321,90,2023-10-04_09h42.04.220,e1,2022.2.5,Linux x86_64,60.0348202,108,264,pilot,,,,,s,0,1.0859,0,33,33,33,1,shinu,Verb,092-shinu.mp3,to die,to summarize,0.3,0,-0.3,0,k,,,,,,,,,,,,,,,,,,,,
68321,90,2023-10-04_09h42.04.220,e1,2022.2.5,Linux x86_64,60.0348202,108,264,pilot,,,,,k,1,0.9252,0,34,34,34,1,kusai,Adj,015-kusai.mp3,smelly,cold,0.3,0,-0.3,0,k,,,,,,,,,,,,,,,,,,,,
68321,90,2023-10-04_09h42.04.220,e1,2022.2.5,Linux x86_64,60.0348202,108,264,pilot,,,,,s,0,1.8429,0,35,35,35,1,kotori,Mim,036-kotori.mp3,sound of something little falling or moving,gently falling,0.3,0,-0.3,0,k,,,,,,,,,,,,,,,,,,,,
68321,90,2023-10-04_09h42.04.220,e1,2022.2.5,Linux x86_64,60.0348202,108,264,pilot,,,,,s,0,0.8794,0,36,36,36,1,takumina,Adj,004-takumina.mp3,skillful,wide,0.3,0,-0.3,0,k,,,,,,,,,,,,,,,,,,,,
68321,90,2023-10-04_09h42.04.220,e1,2022.2.5,Linux x86_64,60.0348202,108,264,pilot,,,,,k,1,1.102,0,37,37,37,1,naritatsu,Verb,081-naritatsu.mp3,to consist,to get on,0.3,0,-0.3,0,k,,,,,,,,,,,,,,,,,,,,
68321,90,2023-10-04_09h42.04.220,e1,2022.2.5,Linux x86_64,60.0348202,108,264,pilot,,,,,s,0,0.6404,0,38,38,38,1,mitsumeru,Verb,088-mitsumeru.mp3,to stare,to define,0.3,0,-0.3,0,k,,,,,,,,,,,,,,,,,,,,
68321,90,2023-10-04_09h42.04.220,e1,2022.2.5,Linux x86_64,60.0348202,108,264,pilot,,,,,k,0,0.7112,0,39,39,39,1,betsuna,Adj,006-betsuna.mp3,another,equal,-0.3,0,0.3,0,s,,,,,,,,,,,,,,,,,,,,
68321,90,2023-10-04_09h42.04.220,e1,2022.2.5,Linux x86_64,60.0348202,108,264,pilot,,,,,s,0,0.6182,0,40,40,40,1,kimazui,Adj,017-kimazui.mp3,awkward,round,0.3,0,-0.3,0,k,,,,,,,,,,,,,,,,,,,,
68321,90,2023-10-04_09h42.04.220,e1,2022.2.5,Linux x86_64,60.0348202,108,264,pilot,,,,,k,0,0.6216,0,41,41,41,1,karari,Mim,026-karari.mp3,dry,spongy,-0.3,0,0.3,0,s,,,,,,,,,,,,,,,,,,,,
68321,90,2023-10-04_09h42.04.220,e1,2022.2.5,Linux x86_64,60.0348202,108,264,pilot,,,,,s,1,2.5989,0,42,42,42,1,petan,Mim,043-petan.mp3,sound of something making firm contact with a flat surface,with a bang,-0.3,0,0.3,0,s,,,,,,,,,,,,,,,,,,,,
68321,90,2023-10-04_09h42.04.220,e1,2022.2.5,Linux x86_64,60.0348202,108,264,pilot,,,,,k,1,0.9452,0,43,43,43,1,hanashi,Noun,055-hanashi.mp3,conversation,friend,0.3,0,-0.3,0,k,,,,,,,,,,,,,,,,,,,,
68321,90,2023-10-04_09h42.04.220,e1,2022.2.5,Linux x86_64,60.0348202,108,264,pilot,,,,,s,0,1.1936,0,44,44,44,1,hitotsu,Noun,068-hitotsu.mp3,one,wife,0.3,0,-0.3,0,k,,,,,,,,,,,,,,,,,,,,
68321,90,2023-10-04_09h42.04.220,e1,2022.2.5,Linux x86_64,60.0348202,108,264,pilot,,,,,s,1,1.3503,0,45,45,45,1,goshagosha,Mim,034-goshagosha.mp3,messy,"with a flash, brightly, dazzlingly",-0.3,0,0.3,0,s,,,,,,,,,,,,,,,,,,,,
68321,90,2023-10-04_09h42.04.220,e1,2022.2.5,Linux x86_64,60.0348202,108,264,pilot,,,,,k,1,0.9028,0,46,46,46,1,tomonau,Verb,080-tomonau.mp3,to accompany,to express,0.3,0,-0.3,0,k,,,,,,,,,,,,,,,,,,,,
68321,90,2023-10-04_09h42.04.220,e1,2022.2.5,Linux x86_64,60.0348202,108,264,pilot,,,,,k,0,0.7014,0,47,47,47,1,tsuyoi,Adj,018-tsuyoi.mp3,strong,familiar,-0.3,0,0.3,0,s,,,,,,,,,,,,,,,,,,,,
68321,90,2023-10-04_09h42.04.220,e1,2022.2.5,Linux x86_64,60.0348202,108,264,pilot,,,,,k,0,0.8676,0,48,48,48,1,chikaku,Noun,073-chikaku.mp3,vicinity,limit,-0.3,0,0.3,0,s,,,,,,,,,,,,,,,,,,,,
68321,90,2023-10-04_09h42.04.220,e1,2022.2.5,Linux x86_64,60.0348202,108,264,pilot,,,,,k,0,0.9689,0,49,49,49,1,hiratai,Adj,022-hiratai.mp3,flat,rich,-0.3,0,0.3,0,s,,,,,,,,,,,,,,,,,,,,
68321,90,2023-10-04_09h42.04.220,e1,2022.2.5,Linux x86_64,60.0348202,108,264,pilot,,,,,,,,,,,,,,,,,,,,,,,66,right,1.5648,,,,,,,,,,,,,,,,,
68321,90,2023-10-04_09h42.04.220,e1,2022.2.5,Linux x86_64,60.0348202,108,264,pilot,,,,,,,,,,,,,,,,,,,,,,,,,,Female,right,4.3605,,,,,,,,,,,,,,
68321,90,2023-10-04_09h42.04.220,e1,2022.2.5,Linux x86_64,60.0348202,108,264,pilot,,,,,,,,,,,,,,,,,,,,,,,,,,,,,English,right,1.9771,,,,,,,,,,,
68321,90,2023-10-04_09h42.04.220,e1,2022.2.5,Linux x86_64,60.0348202,108,264,pilot,,,,,,,,,,,,,,,,,,,,,,,,,,,,,,,,None,right,2.4992,,,,,,,,
68321,90,2023-10-04_09h42.04.220,e1,2022.2.5,Linux x86_64,60.0348202,108,264,pilot,,,,,,,,,,,,,,,,,,,,,,,,,,,,,,,,,,,1,6.5907,right,1.5891,,,,
68321,90,2023-10-04_09h42.04.220,e1,2022.2.5,Linux x86_64,60.0348202,108,264,pilot,,,,,,,,,,,,,,,,,,,,,,,,,,,,,,,,,,,,,,,2,4.4828,right,3.8374
68321,90,2023-10-04_09h42.04.220,e1,2022.2.5,Linux x86_64,60.0348202,108,264,pilot,,,,,,,,,,,,,,,,,,,,,,,,,,,,,,,,,,,,,,,,,,
﻿session,group,date,expName,psychopyVersion,OS,frameRate,participant,expt,status,key_resp.keys,key_resp.rt,key_resp_5.keys,key_resp_5.rt,key_resp_2.keys,key_resp_2.corr,key_resp_2.rt,trials.thisRepN,trials.thisTrialN,trials.thisN,trials.thisIndex,trials.ran,Word,WordClass,FilePath,Target,Foil,TargetPositionX,TargetPositionY,FoilPositionX,FoilPositionY,CorrectKey,textbox.text,enter.keys,enter.rt,textbox_2.text,enter_2.keys,enter_2.rt,textbox_3.text,enter_3.keys,enter_3.rt,textbox_4.text,enter_4.keys,enter_4.rt,slider.response,slider.rt,key_resp_3.keys,key_resp_3.rt,slider_2.response,slider_2.rt,key_resp_4.keys,key_resp_4.rt
68322,108,2023-10-04_09h42.07.850,e1,2022.2.5,MacIntel,59.97720866,109,264,pilot,,,,,,,,,,,,,,,,,,,,,,,,,,,,,,,,,,,,,,,,,,
68322,108,2023-10-04_09h42.07.850,e1,2022.2.5,MacIntel,59.97720866,109,264,pilot,s,13.3726,,,,,,,,,,,,,,,,,,,,,,,,,,,,,,,,,,,,,,,,
68322,108,2023-10-04_09h42.07.850,e1,2022.2.5,MacIntel,59.97720866,109,264,pilot,,,s,5.6722,,,,,,,,,,,,,,,,,,,,,,,,,,,,,,,,,,,,,,
68322,108,2023-10-04_09h42.07.850,e1,2022.2.5,MacIntel,59.97720866,109,264,pilot,,,,,s,1,4.5367,0,0,0,0,1,Left,AttentionCheck,Check_Left.mp3,to compare,to trust,-0.3,0,0.3,0,s,,,,,,,,,,,,,,,,,,,,
68322,108,2023-10-04_09h42.07.850,e1,2022.2.5,MacIntel,59.97720866,109,264,pilot,,,,,k,1,1.4033,0,1,1,1,1,kimazui,Adj,017-kimazui.mp3,awkward,bad at,0.3,0,-0.3,0,k,,,,,,,,,,,,,,,,,,,,
68322,108,2023-10-04_09h42.07.850,e1,2022.2.5,MacIntel,59.97720866,109,264,pilot,,,,,s,0,1.095,0,2,2,2,1,hoka,Noun,075-hoka.mp3,other,past,0.3,0,-0.3,0,k,,,,,,,,,,,,,,,,,,,,
68322,108,2023-10-04_09h42.07.850,e1,2022.2.5,MacIntel,59.97720866,109,264,pilot,,,,,k,0,1.3777,0,3,3,3,1,moji,Noun,071-moji.mp3,letter (as in alphabet),dream,-0.3,0,0.3,0,s,,,,,,,,,,,,,,,,,,,,
68322,108,2023-10-04_09h42.07.850,e1,2022.2.5,MacIntel,59.97720866,109,264,pilot,,,,,k,1,1.158,0,4,4,4,1,wasureru,Verb,085-wasureru.mp3,to forget,to read,0.3,0,-0.3,0,k,,,,,,,,,,,,,,,,,,,,
68322,108,2023-10-04_09h42.07.850,e1,2022.2.5,MacIntel,59.97720866,109,264,pilot,,,,,s,0,1.4192,0,5,5,5,1,hayamena,Adj,001-hayamena.mp3,early,familiar,0.3,0,-0.3,0,k,,,,,,,,,,,,,,,,,,,,
68322,108,2023-10-04_09h42.07.850,e1,2022.2.5,MacIntel,59.97720866,109,264,pilot,,,,,k,0,1.1022,0,6,6,6,1,harari,Mim,045-harari.mp3,gently falling,dropping one's head or shoulders,-0.3,0,0.3,0,s,,,,,,,,,,,,,,,,,,,,
68322,108,2023-10-04_09h42.07.850,e1,2022.2.5,MacIntel,59.97720866,109,264,pilot,,,,,k,1,1.6943,0,7,7,7,1,petan,Mim,043-petan.mp3,sound of something making firm contact with a flat surface,wander,0.3,0,-0.3,0,k,,,,,,,,,,,,,,,,,,,,
68322,108,2023-10-04_09h42.07.850,e1,2022.2.5,MacIntel,59.97720866,109,264,pilot,,,,,s,1,1.1185,0,8,8,8,1,kotoshi,Noun,064-kotoshi.mp3,this year,mother,-0.3,0,0.3,0,s,,,,,,,,,,,,,,,,,,,,
68322,108,2023-10-04_09h42.07.850,e1,2022.2.5,MacIntel,59.97720866,109,264,pilot,,,,,k,1,1.6992,0,9,9,9,1,gatan,Mim,049-gatan.mp3,with a bang,restless,0.3,0,-0.3,0,k,,,,,,,,,,,,,,,,,,,,
68322,108,2023-10-04_09h42.07.850,e1,2022.2.5,MacIntel,59.97720866,109,264,pilot,,,,,s,0,1.0947,0,10,10,10,1,yutakana,Adj,014-yutakana.mp3,rich,disadvantaged,0.3,0,-0.3,0,k,,,,,,,,,,,,,,,,,,,,
68322,108,2023-10-04_09h42.07.850,e1,2022.2.5,MacIntel,59.97720866,109,264,pilot,,,,,k,1,1.2892,0,11,11,11,1,takumina,Adj,004-takumina.mp3,skillful,cold,0.3,0,-0.3,0,k,,,,,,,,,,,,,,,,,,,,
68322,108,2023-10-04_09h42.07.850,e1,2022.2.5,MacIntel,59.97720866,109,264,pilot,,,,,s,1,1.66,0,12,12,12,1,debudebu,Mim,037-debudebu.mp3,fat,spontaneously,-0.3,0,0.3,0,s,,,,,,,,,,,,,,,,,,,,
68322,108,2023-10-04_09h42.07.850,e1,2022.2.5,MacIntel,59.97720866,109,264,pilot,,,,,k,1,3.018,0,13,13,13,1,Right,AttentionCheck,Check_Right.mp3,shape,body,0.3,0,-0.3,0,k,,,,,,,,,,,,,,,,,,,,
68322,108,2023-10-04_09h42.07.850,e1,2022.2.5,MacIntel,59.97720866,109,264,pilot,,,,,s,1,1.5514,0,14,14,14,1,hikari,Noun,069-hikari.mp3,light,conversation,-0.3,0,0.3,0,s,,,,,,,,,,,,,,,,,,,,
68322,108,2023-10-04_09h42.07.850,e1,2022.2.5,MacIntel,59.97720866,109,264,pilot,,,,,k,1,1.7226,0,15,15,15,1,nosori,Mim,027-nosori.mp3,sluggishly,bowing lightly and casually,0.3,0,-0.3,0,k,,,,,,,,,,,,,,,,,,,,
68322,108,2023-10-04_09h42.07.850,e1,2022.2.5,MacIntel,59.97720866,109,264,pilot,,,,,s,1,1.7756,0,16,16,16,1,katsukatsu,Mim,033-katsukatsu.mp3,"barely, scraping by","moving like a chick, chick-like",-0.3,0,0.3,0,s,,,,,,,,,,,,,,,,,,,,
68322,108,2023-10-04_09h42.07.850,e1,2022.2.5,MacIntel,59.97720866,109,264,pilot,,,,,k,1,1.4109,0,17,17,17,1,tegaruna,Adj,002-tegaruna.mp3,simple,white,0.3,0,-0.3,0,k,,,,,,,,,,,,,,,,,,,,
68322,108,2023-10-04_09h42.07.850,e1,2022.2.5,MacIntel,59.97720866,109,264,pilot,,,,,k,1,1.3626,0,18,18,18,1,namida,Noun,063-namida.mp3,tears,flower,0.3,0,-0.3,0,k,,,,,,,,,,,,,,,,,,,,
68322,108,2023-10-04_09h42.07.850,e1,2022.2.5,MacIntel,59.97720866,109,264,pilot,,,,,s,1,1.4062,0,19,19,19,1,tegami,Noun,051-tegami.mp3,letter (as in mail),vicinity,-0.3,0,0.3,0,s,,,,,,,,,,,,,,,,,,,,
68322,108,2023-10-04_09h42.07.850,e1,2022.2.5,MacIntel,59.97720866,109,264,pilot,,,,,s,1,2.4574,0,20,20,20,1,gusha,Mim,046-gusha.mp3,sound of something being squashed,sound of stabbing,-0.3,0,0.3,0,s,,,,,,,,,,,,,,,,,,,,
68322,108,2023-10-04_09h42.07.850,e1,2022.2.5,MacIntel,59.97720866,109,264,pilot,,,,,k,1,1.0869,0,21,21,21,1,kiyoi,Adj,020-kiyoi.mp3,pure,wide,0.3,0,-0.3,0,k,,,,,,,,,,,,,,,,,,,,
68322,108,2023-10-04_09h42.07.850,e1,2022.2.5,MacIntel,59.97720866,109,264,pilot,,,,,s,0,1.1402,0,22,22,22,1,hitotsu,Noun,068-hitotsu.mp3,one,friend,0.3,0,-0.3,0,k,,,,,,,,,,,,,,,,,,,,
68322,108,2023-10-04_09h42.07.850,e1,2022.2.5,MacIntel,59.97720866,109,264,pilot,,,,,k,1,1.1763,0,23,23,23,1,tsuyoi,Adj,018-tsuyoi.mp3,strong,serious,0.3,0,-0.3,0,k,,,,,,,,,,,,,,,,,,,,
68322,108,2023-10-04_09h42.07.850,e1,2022.2.5,MacIntel,59.97720866,109,264,pilot,,,,,s,0,1.2475,0,24,24,24,1,katachi,Noun,059-katachi.mp3,form,wife,0.3,0,-0.3,0,k,,,,,,,,,,,,,,,,,,,,
68322,108,2023-10-04_09h42.07.850,e1,2022.2.5,MacIntel,59.97720866,109,264,pilot,,,,,k,0,1.2085,0,25,25,25,1,nukeru,Verb,086-nukeru.mp3,to escape,to summarize,-0.3,0,0.3,0,s,,,,,,,,,,,,,,,,,,,,
68322,108,2023-10-04_09h42.07.850,e1,2022.2.5,MacIntel,59.97720866,109,264,pilot,,,,,k,0,1.0378,0,26,26,26,1,mitsumeru,Verb,088-mitsumeru.mp3,to stare,to look up,-0.3,0,0.3,0,s,,,,,,,,,,,,,,,,,,,,
68322,108,2023-10-04_09h42.07.850,e1,2022.2.5,MacIntel,59.97720866,109,264,pilot,,,,,k,1,1.8655,0,27,27,27,1,mukashi,Noun,054-mukashi.mp3,long time ago,water,0.3,0,-0.3,0,k,,,,,,,,,,,,,,,,,,,,
