session,group,date,expName,psychopyVersion,OS,frameRate,participant,expt,status,key_resp_2.keys,key_resp_2.rt,key_resp_6.keys,key_resp_6.rt,key_resp_3.keys,key_resp_3.rt,trials.thisRepN,trials.thisTrialN,trials.thisN,trials.thisIndex,trials.ran,Word,WordClass,Definition,Target,Foil,TargetPositionX,TargetPositionY,FoilPositionX,FoilPositionY,TargetTime,FoilTime,CorrectKey,textbox.text,enter.keys,enter.rt,textbox_2.text,enter_2.keys,enter_2.rt,textbox_3.text,enter_3.keys,enter_3.rt,textbox_4.text,enter_4.keys,enter_4.rt,slider.response,slider.rt,key_resp_4.keys,key_resp_4.rt,slider_2.response,slider_2.rt,key_resp_5.keys,key_resp_5.rt
69300,54,2023-10-27_11h57.17.496,V2_E2,2022.2.5,MacIntel,59.99160118,101,283,pilot,,,,,,,,,,,,,,,,,,,,,,,,,,,,,,,,,,,,,,,,,,,
69300,54,2023-10-27_11h57.17.496,V2_E2,2022.2.5,MacIntel,59.99160118,101,283,pilot,s,15.3231,,,,,,,,,,,,,,,,,,,,,,,,,,,,,,,,,,,,,,,,,
69300,54,2023-10-27_11h57.17.496,V2_E2,2022.2.5,MacIntel,59.99160118,101,283,pilot,,,s,1.8831,,,,,,,,,,,,,,,,,,,,,,,,,,,,,,,,,,,,,,,
69300,54,2023-10-27_11h57.17.496,V2_E2,2022.2.5,MacIntel,59.99160118,101,283,pilot,,,,,s,2.6684,0,0,0,0,1,Left,AttentionCheck,to compare,Check_Left.mp3,silence.mp3,-0.3,0,0.3,0,0.5,10,s,,,,,,,,,,,,,,,,,,,,
69300,54,2023-10-27_11h57.17.496,V2_E2,2022.2.5,MacIntel,59.99160118,101,283,pilot,,,,,s,3.1011,0,1,1,1,1,tsuma,Noun,wife,053-tsuma.mp3,055-hanashi.mp3,-0.3,0,0.3,0,0.5,2.1,s,,,,,,,,,,,,,,,,,,,,
69300,54,2023-10-27_11h57.17.496,V2_E2,2022.2.5,MacIntel,59.99160118,101,283,pilot,,,,,k,2.1197,0,2,2,2,1,hiratai,Adj,flat,022-hiratai.mp3,011-toboshii.mp3,0.3,0,-0.3,0,2.1,0.5,k,,,,,,,,,,,,,,,,,,,,
69300,54,2023-10-27_11h57.17.496,V2_E2,2022.2.5,MacIntel,59.99160118,101,283,pilot,,,,,s,1.2152,0,3,3,3,1,kasanaru,Verb,to overlap,087-kasanaru.mp3,083-miseru.mp3,-0.3,0,0.3,0,0.5,2.1,s,,,,,,,,,,,,,,,,,,,,
69300,54,2023-10-27_11h57.17.496,V2_E2,2022.2.5,MacIntel,59.99160118,101,283,pilot,,,,,k,0.7094,0,4,4,4,1,kotoba,Noun,word,072-kotoba.mp3,054-mukashi.mp3,-0.3,0,0.3,0,0.5,2.1,s,,,,,,,,,,,,,,,,,,,,
69300,54,2023-10-27_11h57.17.496,V2_E2,2022.2.5,MacIntel,59.99160118,101,283,pilot,,,,,k,1.6975,0,5,5,5,1,Right,AttentionCheck,to trust,Check_Right.mp3,silence.mp3,0.3,0,-0.3,0,0.5,10,k,,,,,,,,,,,,,,,,,,,,
69300,54,2023-10-27_11h57.17.496,V2_E2,2022.2.5,MacIntel,59.99160118,101,283,pilot,,,,,s,1.4343,0,6,6,6,1,hoka,Noun,other,075-hoka.mp3,068-hitotsu.mp3,-0.3,0,0.3,0,0.5,2.1,s,,,,,,,,,,,,,,,,,,,,
69300,54,2023-10-27_11h57.17.496,V2_E2,2022.2.5,MacIntel,59.99160118,101,283,pilot,,,,,s,2.4202,0,7,7,7,1,yomu,Verb,to read,091-yomu.mp3,084-hajimeru.mp3,0.3,0,-0.3,0,2.1,0.5,k,,,,,,,,,,,,,,,,,,,,
69300,54,2023-10-27_11h57.17.496,V2_E2,2022.2.5,MacIntel,59.99160118,101,283,pilot,,,,,k,1.3659,0,8,8,8,1,tochi,Noun,land,056-tochi.mp3,060-mizu.mp3,0.3,0,-0.3,0,2.1,0.5,k,,,,,,,,,,,,,,,,,,,,
69300,54,2023-10-27_11h57.17.496,V2_E2,2022.2.5,MacIntel,59.99160118,101,283,pilot,,,,,s,0.4772,0,9,9,9,1,nemui,Adj,sleepy,024-nemui.mp3,007-hitoshii.mp3,0.3,0,-0.3,0,2.1,0.5,k,,,,,,,,,,,,,,,,,,,,
69300,54,2023-10-27_11h57.17.496,V2_E2,2022.2.5,MacIntel,59.99160118,101,283,pilot,,,,,k,1.6037,0,10,10,10,1,yobu,Verb,to call,076-yobu.mp3,079-fukameru.mp3,-0.3,0,0.3,0,0.5,2.1,s,,,,,,,,,,,,,,,,,,,,
69300,54,2023-10-27_11h57.17.496,V2_E2,2022.2.5,MacIntel,59.99160118,101,283,pilot,,,,,s,2.0327,0,11,11,11,1,majimena,Adj,serious,010-majimena.mp3,016-kurai.mp3,-0.3,0,0.3,0,0.5,2.1,s,,,,,,,,,,,,,,,,,,,,
69300,54,2023-10-27_11h57.17.496,V2_E2,2022.2.5,MacIntel,59.99160118,101,283,pilot,,,,,k,1.5013,0,12,12,12,1,yutakana,Adj,rich,014-yutakana.mp3,002-tegaruna.mp3,-0.3,0,0.3,0,0.5,2.1,s,,,,,,,,,,,,,,,,,,,,
69300,54,2023-10-27_11h57.17.496,V2_E2,2022.2.5,MacIntel,59.99160118,101,283,pilot,,,,,s,1.2494,0,13,13,13,1,kagiri,Noun,limit,061-kagiri.mp3,073-chikaku.mp3,0.3,0,-0.3,0,2.1,0.5,k,,,,,,,,,,,,,,,,,,,,
69300,54,2023-10-27_11h57.17.496,V2_E2,2022.2.5,MacIntel,59.99160118,101,283,pilot,,,,,k,3.4002,0,14,14,14,1,hiyohiyo,Mim,"moving like a chick, chick-like",028-hiyohiyo.mp3,026-karari.mp3,0.3,0,-0.3,0,2.1,0.5,k,,,,,,,,,,,,,,,,,,,,
69300,54,2023-10-27_11h57.17.496,V2_E2,2022.2.5,MacIntel,59.99160118,101,283,pilot,,,,,k,2.485,0,15,15,15,1,gakun,Mim,dropping one's head or shoulders,039-gakun.mp3,041-chirochiro.mp3,0.3,0,-0.3,0,2.1,0.5,k,,,,,,,,,,,,,,,,,,,,
69300,54,2023-10-27_11h57.17.496,V2_E2,2022.2.5,MacIntel,59.99160118,101,283,pilot,,,,,s,1.5684,0,16,16,16,1,tsuyoi,Adj,strong,018-tsuyoi.mp3,017-kimazui.mp3,-0.3,0,0.3,0,0.5,2.1,s,,,,,,,,,,,,,,,,,,,,
69300,54,2023-10-27_11h57.17.496,V2_E2,2022.2.5,MacIntel,59.99160118,101,283,pilot,,,,,s,0.9488,0,17,17,17,1,yuku,Verb,to go,077-yuku.mp3,090-tsubuyaku.mp3,0.3,0,-0.3,0,2.1,0.5,k,,,,,,,,,,,,,,,,,,,,
69300,54,2023-10-27_11h57.17.496,V2_E2,2022.2.5,MacIntel,59.99160118,101,283,pilot,,,,,k,1.5347,0,18,18,18,1,hana,Noun,flower,074-hana.mp3,063-namida.mp3,0.3,0,-0.3,0,2.1,0.5,k,,,,,,,,,,,,,,,,,,,,
69300,54,2023-10-27_11h57.17.496,V2_E2,2022.2.5,MacIntel,59.99160118,101,283,pilot,,,,,s,1.7506,0,19,19,19,1,gatan,Mim,with a bang,049-gatan.mp3,043-petan.mp3,0.3,0,-0.3,0,2.1,0.5,k,,,,,,,,,,,,,,,,,,,,
69300,54,2023-10-27_11h57.17.496,V2_E2,2022.2.5,MacIntel,59.99160118,101,283,pilot,,,,,k,0.3147,0,20,20,20,1,betsuna,Adj,another,006-betsuna.mp3,004-takumina.mp3,0.3,0,-0.3,0,2.1,0.5,k,,,,,,,,,,,,,,,,,,,,
69300,54,2023-10-27_11h57.17.496,V2_E2,2022.2.5,MacIntel,59.99160118,101,283,pilot,,,,,s,1.5518,0,21,21,21,1,hirogeru,Verb,to spread,097-hirogeru.mp3,093-noru.mp3,-0.3,0,0.3,0,0.5,2.1,s,,,,,,,,,,,,,,,,,,,,
69300,54,2023-10-27_11h57.17.496,V2_E2,2022.2.5,MacIntel,59.99160118,101,283,pilot,,,,,s,0.5011,0,22,22,22,1,tobu,Verb,to jump,099-tobu.mp3,096-sadameru.mp3,-0.3,0,0.3,0,0.5,2.1,s,,,,,,,,,,,,,,,,,,,,
69300,54,2023-10-27_11h57.17.496,V2_E2,2022.2.5,MacIntel,59.99160118,101,283,pilot,,,,,k,0.6658,0,23,23,23,1,kitanai,Adj,dirty,012-kitanai.mp3,015-kusai.mp3,0.3,0,-0.3,0,2.1,0.5,k,,,,,,,,,,,,,,,,,,,,
69300,54,2023-10-27_11h57.17.496,V2_E2,2022.2.5,MacIntel,59.99160118,101,283,pilot,,,,,s,1.3837,0,24,24,24,1,garan,Mim,empty,038-garan.mp3,027-nosori.mp3,-0.3,0,0.3,0,0.5,2.1,s,,,,,,,,,,,,,,,,,,,,
69300,54,2023-10-27_11h57.17.496,V2_E2,2022.2.5,MacIntel,59.99160118,101,283,pilot,,,,,s,1.4482,0,25,25,25,1,naritatsu,Verb,to consist,081-naritatsu.mp3,092-shinu.mp3,-0.3,0,0.3,0,0.5,2.1,s,,,,,,,,,,,,,,,,,,,,
69300,54,2023-10-27_11h57.17.496,V2_E2,2022.2.5,MacIntel,59.99160118,101,283,pilot,,,,,s,1.6841,0,26,26,26,1,shiroi,Adj,white,023-shiroi.mp3,019-hiroi.mp3,-0.3,0,0.3,0,0.5,2.1,s,,,,,,,,,,,,,,,,,,,,
69300,54,2023-10-27_11h57.17.496,V2_E2,2022.2.5,MacIntel,59.99160118,101,283,pilot,,,,,s,1.4054,0,27,27,27,1,mamoru,Verb,to protect,098-mamoru.mp3,085-wasureru.mp3,0.3,0,-0.3,0,2.1,0.5,k,,,,,,,,,,,,,,,,,,,,
69300,54,2023-10-27_11h57.17.496,V2_E2,2022.2.5,MacIntel,59.99160118,101,283,pilot,,,,,k,1.4205,0,28,28,28,1,kuchi,Noun,mouth,067-kuchi.mp3,069-hikari.mp3,0.3,0,-0.3,0,2.1,0.5,k,,,,,,,,,,,,,,,,,,,,
69300,54,2023-10-27_11h57.17.496,V2_E2,2022.2.5,MacIntel,59.99160118,101,283,pilot,,,,,k,1.781,0,29,29,29,1,nakama,Noun,friend,066-nakama.mp3,071-moji.mp3,-0.3,0,0.3,0,0.5,2.1,s,,,,,,,,,,,,,,,,,,,,
69300,54,2023-10-27_11h57.17.496,V2_E2,2022.2.5,MacIntel,59.99160118,101,283,pilot,,,,,k,1.9085,0,30,30,30,1,kebakeba,Mim,too much makeup,040-kebakeba.mp3,035-busuri.mp3,0.3,0,-0.3,0,2.1,0.5,k,,,,,,,,,,,,,,,,,,,,
69300,54,2023-10-27_11h57.17.496,V2_E2,2022.2.5,MacIntel,59.99160118,101,283,pilot,,,,,s,1.3671,0,31,31,31,1,hiku,Verb,to pull,094-hiku.mp3,078-noberu.mp3,-0.3,0,0.3,0,0.5,2.1,s,,,,,,,,,,,,,,,,,,,,
69300,54,2023-10-27_11h57.17.496,V2_E2,2022.2.5,MacIntel,59.99160118,101,283,pilot,,,,,k,1.2198,0,32,32,32,1,katachi,Noun,form,059-katachi.mp3,051-tegami.mp3,-0.3,0,0.3,0,0.5,2.1,s,,,,,,,,,,,,,,,,,,,,
69300,54,2023-10-27_11h57.17.496,V2_E2,2022.2.5,MacIntel,59.99160118,101,283,pilot,,,,,k,1.0172,0,33,33,33,1,nigatena,Adj,bad at,009-nigatena.mp3,001-hayamena.mp3,0.3,0,-0.3,0,2.1,0.5,k,,,,,,,,,,,,,,,,,,,,
69300,54,2023-10-27_11h57.17.496,V2_E2,2022.2.5,MacIntel,59.99160118,101,283,pilot,,,,,k,2.0984,0,34,34,34,1,wasawasa,Mim,restless,048-wasawasa.mp3,037-debudebu.mp3,-0.3,0,0.3,0,0.5,2.1,s,,,,,,,,,,,,,,,,,,,,
69300,54,2023-10-27_11h57.17.496,V2_E2,2022.2.5,MacIntel,59.99160118,101,283,pilot,,,,,k,1.7475,0,35,35,35,1,kotori,Mim,sound of something little falling or moving,036-kotori.mp3,029-tsuratsura.mp3,-0.3,0,0.3,0,0.5,2.1,s,,,,,,,,,,,,,,,,,,,,
69300,54,2023-10-27_11h57.17.496,V2_E2,2022.2.5,MacIntel,59.99160118,101,283,pilot,,,,,k,0.9172,0,36,36,36,1,shobon,Mim,"downheartedly, dejectedly",044-shobon.mp3,034-goshagosha.mp3,-0.3,0,0.3,0,0.5,2.1,s,,,,,,,,,,,,,,,,,,,,
69300,54,2023-10-27_11h57.17.496,V2_E2,2022.2.5,MacIntel,59.99160118,101,283,pilot,,,,,s,1.5173,0,37,37,37,1,samui,Adj,cold,021-samui.mp3,025-marui.mp3,-0.3,0,0.3,0,0.5,2.1,s,,,,,,,,,,,,,,,,,,,,
69300,54,2023-10-27_11h57.17.496,V2_E2,2022.2.5,MacIntel,59.99160118,101,283,pilot,,,,,k,0.7335,0,38,38,38,1,tomonau,Verb,to accompany,080-tomonau.mp3,086-nukeru.mp3,0.3,0,-0.3,0,2.1,0.5,k,,,,,,,,,,,,,,,,,,,,
69300,54,2023-10-27_11h57.17.496,V2_E2,2022.2.5,MacIntel,59.99160118,101,283,pilot,,,,,s,0.2271,0,39,39,39,1,jimoto,Noun,local,058-jimoto.mp3,062-yume.mp3,-0.3,0,0.3,0,0.5,2.1,s,,,,,,,,,,,,,,,,,,,,
69300,54,2023-10-27_11h57.17.496,V2_E2,2022.2.5,MacIntel,59.99160118,101,283,pilot,,,,,k,0.4559,0,40,40,40,1,kotoshi,Noun,this year,064-kotoshi.mp3,065-matsuri.mp3,-0.3,0,0.3,0,0.5,2.1,s,,,,,,,,,,,,,,,,,,,,
69300,54,2023-10-27_11h57.17.496,V2_E2,2022.2.5,MacIntel,59.99160118,101,283,pilot,,,,,k,1.0864,0,41,41,41,1,shiraberu,Verb,to look up,089-shiraberu.mp3,100-kasaneru.mp3,-0.3,0,0.3,0,0.5,2.1,s,,,,,,,,,,,,,,,,,,,,
69300,54,2023-10-27_11h57.17.496,V2_E2,2022.2.5,MacIntel,59.99160118,101,283,pilot,,,,,k,1.1669,0,42,42,42,1,matomeru,Verb,to summarize,095-matomeru.mp3,088-mitsumeru.mp3,-0.3,0,0.3,0,0.5,2.1,s,,,,,,,,,,,,,,,,,,,,
69300,54,2023-10-27_11h57.17.496,V2_E2,2022.2.5,MacIntel,59.99160118,101,283,pilot,,,,,s,0.9996,0,43,43,43,1,furina,Adj,disadvantaged,008-furina.mp3,020-kiyoi.mp3,0.3,0,-0.3,0,2.1,0.5,k,,,,,,,,,,,,,,,,,,,,
69300,54,2023-10-27_11h57.17.496,V2_E2,2022.2.5,MacIntel,59.99160118,101,283,pilot,,,,,s,0.6466,0,44,44,44,1,furui,Adj,old,013-furui.mp3,003-mijikana.mp3,0.3,0,-0.3,0,2.1,0.5,k,,,,,,,,,,,,,,,,,,,,
69300,54,2023-10-27_11h57.17.496,V2_E2,2022.2.5,MacIntel,59.99160118,101,283,pilot,,,,,k,0.7798,0,45,45,45,1,harari,Mim,gently falling,045-harari.mp3,046-gusha.mp3,0.3,0,-0.3,0,2.1,0.5,k,,,,,,,,,,,,,,,,,,,,
69300,54,2023-10-27_11h57.17.496,V2_E2,2022.2.5,MacIntel,59.99160118,101,283,pilot,,,,,k,1.8688,0,46,46,46,1,funyafunya,Mim,"soft and limp; or mumbling, talking with food in mouth",050-funyafunya.mp3,032-buwabuwa.mp3,0.3,0,-0.3,0,2.1,0.5,k,,,,,,,,,,,,,,,,,,,,
69300,54,2023-10-27_11h57.17.496,V2_E2,2022.2.5,MacIntel,59.99160118,101,283,pilot,,,,,s,1.352,0,47,47,47,1,haha,Noun,mother,070-haha.mp3,052-kako.mp3,0.3,0,-0.3,0,2.1,0.5,k,,,,,,,,,,,,,,,,,,,,
69300,54,2023-10-27_11h57.17.496,V2_E2,2022.2.5,MacIntel,59.99160118,101,283,pilot,,,,,s,0.9533,0,48,48,48,1,pekon,Mim,bowing lightly and casually,030-pekon.mp3,042-burari.mp3,0.3,0,-0.3,0,2.1,0.5,k,,,,,,,,,,,,,,,,,,,,
69300,54,2023-10-27_11h57.17.496,V2_E2,2022.2.5,MacIntel,59.99160118,101,283,pilot,,,,,k,0.9814,0,49,49,49,1,pikari,Mim,"with a flash, brightly, dazzlingly",031-pikari.mp3,033-katsukatsu.mp3,-0.3,0,0.3,0,0.5,2.1,s,,,,,,,,,,,,,,,,,,,,
69300,54,2023-10-27_11h57.17.496,V2_E2,2022.2.5,MacIntel,59.99160118,101,283,pilot,,,,,,,,,,,,,,,,,,,,,,,,32,right,3.6356,,,,,,,,,,,,,,,,,
69300,54,2023-10-27_11h57.17.496,V2_E2,2022.2.5,MacIntel,59.99160118,101,283,pilot,,,,,,,,,,,,,,,,,,,,,,,,,,,female,right,3.1367,,,,,,,,,,,,,,
69300,54,2023-10-27_11h57.17.496,V2_E2,2022.2.5,MacIntel,59.99160118,101,283,pilot,,,,,,,,,,,,,,,,,,,,,,,,,,,,,,urdu,right,1.3034,,,,,,,,,,,
69300,54,2023-10-27_11h57.17.496,V2_E2,2022.2.5,MacIntel,59.99160118,101,283,pilot,,,,,,,,,,,,,,,,,,,,,,,,,,,,,,,,,english,right,8.1809,,,,,,,,
69300,54,2023-10-27_11h57.17.496,V2_E2,2022.2.5,MacIntel,59.99160118,101,283,pilot,,,,,,,,,,,,,,,,,,,,,,,,,,,,,,,,,,,,1,5.0797,right,4.3011,,,,
69300,54,2023-10-27_11h57.17.496,V2_E2,2022.2.5,MacIntel,59.99160118,101,283,pilot,,,,,,,,,,,,,,,,,,,,,,,,,,,,,,,,,,,,,,,,1,2.8026,right,0.6339
﻿session,group,date,expName,psychopyVersion,OS,frameRate,participant,expt,status,key_resp_2.keys,key_resp_2.rt,key_resp_6.keys,key_resp_6.rt,key_resp_3.keys,key_resp_3.rt,trials.thisRepN,trials.thisTrialN,trials.thisN,trials.thisIndex,trials.ran,Word,WordClass,Definition,Target,Foil,TargetPositionX,TargetPositionY,FoilPositionX,FoilPositionY,TargetTime,FoilTime,CorrectKey,textbox.text,enter.keys,enter.rt,textbox_2.text,enter_2.keys,enter_2.rt,textbox_3.text,enter_3.keys,enter_3.rt,textbox_4.text,enter_4.keys,enter_4.rt,slider.response,slider.rt,key_resp_4.keys,key_resp_4.rt,slider_2.response,slider_2.rt,key_resp_5.keys,key_resp_5.rt
69301,43,2023-10-27_11h57.21.184,V2_E2,2022.2.5,Win32,59.78715772,102,283,pilot,,,,,,,,,,,,,,,,,,,,,,,,,,,,,,,,,,,,,,,,,,,
69301,43,2023-10-27_11h57.21.184,V2_E2,2022.2.5,Win32,59.78715772,102,283,pilot,s,20.0312,,,,,,,,,,,,,,,,,,,,,,,,,,,,,,,,,,,,,,,,,
69301,43,2023-10-27_11h57.21.184,V2_E2,2022.2.5,Win32,59.78715772,102,283,pilot,,,s,24.9336,,,,,,,,,,,,,,,,,,,,,,,,,,,,,,,,,,,,,,,
69301,43,2023-10-27_11h57.21.184,V2_E2,2022.2.5,Win32,59.78715772,102,283,pilot,,,,,s,5.1555,0,0,0,0,1,Left,AttentionCheck,to compare,Check_Left.mp3,silence.mp3,-0.3,0,0.3,0,0.5,10,s,,,,,,,,,,,,,,,,,,,,
69301,43,2023-10-27_11h57.21.184,V2_E2,2022.2.5,Win32,59.78715772,102,283,pilot,,,,,k,4.0951,0,1,1,1,1,hikari,Noun,light,069-hikari.mp3,066-nakama.mp3,-0.3,0,0.3,0,0.5,2.1,s,,,,,,,,,,,,,,,,,,,,
69301,43,2023-10-27_11h57.21.184,V2_E2,2022.2.5,Win32,59.78715772,102,283,pilot,,,,,s,2.0427,0,2,2,2,1,takumina,Adj,skillful,004-takumina.mp3,024-nemui.mp3,0.3,0,-0.3,0,2.1,0.5,k,,,,,,,,,,,,,,,,,,,,
69301,43,2023-10-27_11h57.21.184,V2_E2,2022.2.5,Win32,59.78715772,102,283,pilot,,,,,s,2.5455,0,3,3,3,1,mitsumeru,Verb,to stare,088-mitsumeru.mp3,080-tomonau.mp3,0.3,0,-0.3,0,2.1,0.5,k,,,,,,,,,,,,,,,,,,,,
69301,43,2023-10-27_11h57.21.184,V2_E2,2022.2.5,Win32,59.78715772,102,283,pilot,,,,,k,2.2145,0,4,4,4,1,tsuyoi,Adj,strong,018-tsuyoi.mp3,017-kimazui.mp3,-0.3,0,0.3,0,0.5,2.1,s,,,,,,,,,,,,,,,,,,,,
69301,43,2023-10-27_11h57.21.184,V2_E2,2022.2.5,Win32,59.78715772,102,283,pilot,,,,,k,1.6977,0,5,5,5,1,kotoba,Noun,word,072-kotoba.mp3,058-jimoto.mp3,-0.3,0,0.3,0,0.5,2.1,s,,,,,,,,,,,,,,,,,,,,
69301,43,2023-10-27_11h57.21.184,V2_E2,2022.2.5,Win32,59.78715772,102,283,pilot,,,,,s,1.7005,0,6,6,6,1,garan,Mim,empty,038-garan.mp3,050-funyafunya.mp3,-0.3,0,0.3,0,0.5,2.1,s,,,,,,,,,,,,,,,,,,,,
69301,43,2023-10-27_11h57.21.184,V2_E2,2022.2.5,Win32,59.78715772,102,283,pilot,,,,,k,1.1665,0,7,7,7,1,nukeru,Verb,to escape,086-nukeru.mp3,096-sadameru.mp3,-0.3,0,0.3,0,0.5,2.1,s,,,,,,,,,,,,,,,,,,,,
69301,43,2023-10-27_11h57.21.184,V2_E2,2022.2.5,Win32,59.78715772,102,283,pilot,,,,,k,1.0957,0,8,8,8,1,tochi,Noun,land,056-tochi.mp3,060-mizu.mp3,0.3,0,-0.3,0,2.1,0.5,k,,,,,,,,,,,,,,,,,,,,
69301,43,2023-10-27_11h57.21.184,V2_E2,2022.2.5,Win32,59.78715772,102,283,pilot,,,,,k,1.9688,0,9,9,9,1,kuchi,Noun,mouth,067-kuchi.mp3,051-tegami.mp3,-0.3,0,0.3,0,0.5,2.1,s,,,,,,,,,,,,,,,,,,,,
69301,43,2023-10-27_11h57.21.184,V2_E2,2022.2.5,Win32,59.78715772,102,283,pilot,,,,,s,1.1346,0,10,10,10,1,gusha,Mim,sound of something being squashed,046-gusha.mp3,049-gatan.mp3,-0.3,0,0.3,0,0.5,2.1,s,,,,,,,,,,,,,,,,,,,,
69301,43,2023-10-27_11h57.21.184,V2_E2,2022.2.5,Win32,59.78715772,102,283,pilot,,,,,s,0.7645,0,11,11,11,1,furui,Adj,old,013-furui.mp3,009-nigatena.mp3,-0.3,0,0.3,0,0.5,2.1,s,,,,,,,,,,,,,,,,,,,,
69301,43,2023-10-27_11h57.21.184,V2_E2,2022.2.5,Win32,59.78715772,102,283,pilot,,,,,k,1.2109,0,12,12,12,1,kiyoi,Adj,pure,020-kiyoi.mp3,011-toboshii.mp3,-0.3,0,0.3,0,0.5,2.1,s,,,,,,,,,,,,,,,,,,,,
69301,43,2023-10-27_11h57.21.184,V2_E2,2022.2.5,Win32,59.78715772,102,283,pilot,,,,,k,2.1022,0,13,13,13,1,mamoru,Verb,to protect,098-mamoru.mp3,085-wasureru.mp3,-0.3,0,0.3,0,0.5,2.1,s,,,,,,,,,,,,,,,,,,,,
69301,43,2023-10-27_11h57.21.184,V2_E2,2022.2.5,Win32,59.78715772,102,283,pilot,,,,,k,1.5649,0,14,14,14,1,marena,Adj,rare,005-marena.mp3,010-majimena.mp3,-0.3,0,0.3,0,0.5,2.1,s,,,,,,,,,,,,,,,,,,,,
69301,43,2023-10-27_11h57.21.184,V2_E2,2022.2.5,Win32,59.78715772,102,283,pilot,,,,,s,1.9452,0,15,15,15,1,katsukatsu,Mim,"barely, scraping by",033-katsukatsu.mp3,032-buwabuwa.mp3,0.3,0,-0.3,0,2.1,0.5,k,,,,,,,,,,,,,,,,,,,,
69301,43,2023-10-27_11h57.21.184,V2_E2,2022.2.5,Win32,59.78715772,102,283,pilot,,,,,s,2.0792,0,16,16,16,1,noru,Verb,to get on,093-noru.mp3,078-noberu.mp3,-0.3,0,0.3,0,0.5,2.1,s,,,,,,,,,,,,,,,,,,,,
69301,43,2023-10-27_11h57.21.184,V2_E2,2022.2.5,Win32,59.78715772,102,283,pilot,,,,,s,1.4478,0,17,17,17,1,haha,Noun,mother,070-haha.mp3,074-hana.mp3,0.3,0,-0.3,0,2.1,0.5,k,,,,,,,,,,,,,,,,,,,,
69301,43,2023-10-27_11h57.21.184,V2_E2,2022.2.5,Win32,59.78715772,102,283,pilot,,,,,k,1.2017,0,18,18,18,1,kurai,Adj,dark,016-kurai.mp3,002-tegaruna.mp3,0.3,0,-0.3,0,2.1,0.5,k,,,,,,,,,,,,,,,,,,,,
69301,43,2023-10-27_11h57.21.184,V2_E2,2022.2.5,Win32,59.78715772,102,283,pilot,,,,,s,1.6136,0,19,19,19,1,chirochiro,Mim,"flicker of light, trickle of water",041-chirochiro.mp3,044-shobon.mp3,-0.3,0,0.3,0,0.5,2.1,s,,,,,,,,,,,,,,,,,,,,
69301,43,2023-10-27_11h57.21.184,V2_E2,2022.2.5,Win32,59.78715772,102,283,pilot,,,,,s,1.6127,0,20,20,20,1,hayamena,Adj,early,001-hayamena.mp3,007-hitoshii.mp3,0.3,0,-0.3,0,2.1,0.5,k,,,,,,,,,,,,,,,,,,,,
69301,43,2023-10-27_11h57.21.184,V2_E2,2022.2.5,Win32,59.78715772,102,283,pilot,,,,,k,1.6578,0,21,21,21,1,moji,Noun,letter (as in alphabet),071-moji.mp3,061-kagiri.mp3,0.3,0,-0.3,0,2.1,0.5,k,,,,,,,,,,,,,,,,,,,,
69301,43,2023-10-27_11h57.21.184,V2_E2,2022.2.5,Win32,59.78715772,102,283,pilot,,,,,k,1.7268,0,22,22,22,1,pekon,Mim,bowing lightly and casually,030-pekon.mp3,027-nosori.mp3,0.3,0,-0.3,0,2.1,0.5,k,,,,,,,,,,,,,,,,,,,,
69301,43,2023-10-27_11h57.21.184,V2_E2,2022.2.5,Win32,59.78715772,102,283,pilot,,,,,k,0.9455,0,23,23,23,1,fukameru,Verb,to deepen,079-fukameru.mp3,076-yobu.mp3,0.3,0,-0.3,0,2.1,0.5,k,,,,,,,,,,,,,,,,,,,,
69301,43,2023-10-27_11h57.21.184,V2_E2,2022.2.5,Win32,59.78715772,102,283,pilot,,,,,k,0.8298,0,24,24,24,1,shinu,Verb,to die,092-shinu.mp3,091-yomu.mp3,-0.3,0,0.3,0,0.5,2.1,s,,,,,,,,,,,,,,,,,,,,
69301,43,2023-10-27_11h57.21.184,V2_E2,2022.2.5,Win32,59.78715772,102,283,pilot,,,,,k,1.3417,0,25,25,25,1,kusai,Adj,smelly,015-kusai.mp3,025-marui.mp3,-0.3,0,0.3,0,0.5,2.1,s,,,,,,,,,,,,,,,,,,,,
69301,43,2023-10-27_11h57.21.184,V2_E2,2022.2.5,Win32,59.78715772,102,283,pilot,,,,,s,1.6071,0,26,26,26,1,kasanaru,Verb,to overlap,087-kasanaru.mp3,095-matomeru.mp3,0.3,0,-0.3,0,2.1,0.5,k,,,,,,,,,,,,,,,,,,,,
69301,43,2023-10-27_11h57.21.184,V2_E2,2022.2.5,Win32,59.78715772,102,283,pilot,,,,,s,1.1144,0,27,27,27,1,matsuri,Noun,festival,065-matsuri.mp3,057-sakana.mp3,0.3,0,-0.3,0,2.1,0.5,k,,,,,,,,,,,,,,,,,,,,
69301,43,2023-10-27_11h57.21.184,V2_E2,2022.2.5,Win32,59.78715772,102,283,pilot,,,,,s,1.1604,0,28,28,28,1,yuku,Verb,to go,077-yuku.mp3,099-tobu.mp3,0.3,0,-0.3,0,2.1,0.5,k,,,,,,,,,,,,,,,,,,,,
69301,43,2023-10-27_11h57.21.184,V2_E2,2022.2.5,Win32,59.78715772,102,283,pilot,,,,,s,1.3591,0,29,29,29,1,tsubuyaku,Verb,to speak to oneself in a quiet voice,090-tsubuyaku.mp3,094-hiku.mp3,-0.3,0,0.3,0,0.5,2.1,s,,,,,,,,,,,,,,,,,,,,
69301,43,2023-10-27_11h57.21.184,V2_E2,2022.2.5,Win32,59.78715772,102,283,pilot,,,,,k,0.893,0,30,30,30,1,namida,Noun,tears,063-namida.mp3,053-tsuma.mp3,-0.3,0,0.3,0,0.5,2.1,s,,,,,,,,,,,,,,,,,,,,
69301,43,2023-10-27_11h57.21.184,V2_E2,2022.2.5,Win32,59.78715772,102,283,pilot,,,,,k,0.895,0,31,31,31,1,kako,Noun,past,052-kako.mp3,055-hanashi.mp3,0.3,0,-0.3,0,2.1,0.5,k,,,,,,,,,,,,,,,,,,,,
69301,43,2023-10-27_11h57.21.184,V2_E2,2022.2.5,Win32,59.78715772,102,283,pilot,,,,,k,0.9142,0,32,32,32,1,pikari,Mim,"with a flash, brightly, dazzlingly",031-pikari.mp3,037-debudebu.mp3,-0.3,0,0.3,0,0.5,2.1,s,,,,,,,,,,,,,,,,,,,,
69301,43,2023-10-27_11h57.21.184,V2_E2,2022.2.5,Win32,59.78715772,102,283,pilot,,,,,k,1.279,0,33,33,33,1,gakun,Mim,dropping one's head or shoulders,039-gakun.mp3,029-tsuratsura.mp3,0.3,0,-0.3,0,2.1,0.5,k,,,,,,,,,,,,,,,,,,,,
69301,43,2023-10-27_11h57.21.184,V2_E2,2022.2.5,Win32,59.78715772,102,283,pilot,,,,,s,1.4183,0,34,34,34,1,yutakana,Adj,rich,014-yutakana.mp3,023-shiroi.mp3,-0.3,0,0.3,0,0.5,2.1,s,,,,,,,,,,,,,,,,,,,,
69301,43,2023-10-27_11h57.21.184,V2_E2,2022.2.5,Win32,59.78715772,102,283,pilot,,,,,k,0.7271,0,35,35,35,1,karari,Mim,dry,026-karari.mp3,028-hiyohiyo.mp3,0.3,0,-0.3,0,2.1,0.5,k,,,,,,,,,,,,,,,,,,,,
69301,43,2023-10-27_11h57.21.184,V2_E2,2022.2.5,Win32,59.78715772,102,283,pilot,,,,,k,0.9097,0,36,36,36,1,furina,Adj,disadvantaged,008-furina.mp3,019-hiroi.mp3,-0.3,0,0.3,0,0.5,2.1,s,,,,,,,,,,,,,,,,,,,,
69301,43,2023-10-27_11h57.21.184,V2_E2,2022.2.5,Win32,59.78715772,102,283,pilot,,,,,k,0.6371,0,37,37,37,1,kitanai,Adj,dirty,012-kitanai.mp3,006-betsuna.mp3,-0.3,0,0.3,0,0.5,2.1,s,,,,,,,,,,,,,,,,,,,,
69301,43,2023-10-27_11h57.21.184,V2_E2,2022.2.5,Win32,59.78715772,102,283,pilot,,,,,k,0.7824,0,38,38,38,1,katachi,Noun,form,059-katachi.mp3,062-yume.mp3,0.3,0,-0.3,0,2.1,0.5,k,,,,,,,,,,,,,,,,,,,,
69301,43,2023-10-27_11h57.21.184,V2_E2,2022.2.5,Win32,59.78715772,102,283,pilot,,,,,s,0.7418,0,39,39,39,1,hoka,Noun,other,075-hoka.mp3,073-chikaku.mp3,0.3,0,-0.3,0,2.1,0.5,k,,,,,,,,,,,,,,,,,,,,
69301,43,2023-10-27_11h57.21.184,V2_E2,2022.2.5,Win32,59.78715772,102,283,pilot,,,,,s,1.0434,0,40,40,40,1,harari,Mim,gently falling,045-harari.mp3,036-kotori.mp3,-0.3,0,0.3,0,0.5,2.1,s,,,,,,,,,,,,,,,,,,,,
69301,43,2023-10-27_11h57.21.184,V2_E2,2022.2.5,Win32,59.78715772,102,283,pilot,,,,,k,1.9573,0,41,41,41,1,Right,AttentionCheck,to trust,Check_Right.mp3,silence.mp3,0.3,0,-0.3,0,0.5,10,k,,,,,,,,,,,,,,,,,,,,
69301,43,2023-10-27_11h57.21.184,V2_E2,2022.2.5,Win32,59.78715772,102,283,pilot,,,,,k,1.3204,0,42,42,42,1,mijikana,Adj,familiar,003-mijikana.mp3,022-hiratai.mp3,-0.3,0,0.3,0,0.5,2.1,s,,,,,,,,,,,,,,,,,,,,
69301,43,2023-10-27_11h57.21.184,V2_E2,2022.2.5,Win32,59.78715772,102,283,pilot,,,,,s,1.501,0,43,43,43,1,kebakeba,Mim,too much makeup,040-kebakeba.mp3,034-goshagosha.mp3,-0.3,0,0.3,0,0.5,2.1,s,,,,,,,,,,,,,,,,,,,,
69301,43,2023-10-27_11h57.21.184,V2_E2,2022.2.5,Win32,59.78715772,102,283,pilot,,,,,k,1.2427,0,44,44,44,1,naritatsu,Verb,to consist,081-naritatsu.mp3,089-shiraberu.mp3,0.3,0,-0.3,0,2.1,0.5,k,,,,,,,,,,,,,,,,,,,,
69301,43,2023-10-27_11h57.21.184,V2_E2,2022.2.5,Win32,59.78715772,102,283,pilot,,,,,k,1.5573,0,45,45,45,1,petan,Mim,sound of something making firm contact with a flat surface,043-petan.mp3,042-burari.mp3,-0.3,0,0.3,0,0.5,2.1,s,,,,,,,,,,,,,,,,,,,,
69301,43,2023-10-27_11h57.21.184,V2_E2,2022.2.5,Win32,59.78715772,102,283,pilot,,,,,s,1.073,0,46,46,46,1,hirogeru,Verb,to spread,097-hirogeru.mp3,083-miseru.mp3,0.3,0,-0.3,0,2.1,0.5,k,,,,,,,,,,,,,,,,,,,,
69301,43,2023-10-27_11h57.21.184,V2_E2,2022.2.5,Win32,59.78715772,102,283,pilot,,,,,k,0.8744,0,47,47,47,1,kotoshi,Noun,this year,064-kotoshi.mp3,054-mukashi.mp3,-0.3,0,0.3,0,0.5,2.1,s,,,,,,,,,,,,,,,,,,,,
69301,43,2023-10-27_11h57.21.184,V2_E2,2022.2.5,Win32,59.78715772,102,283,pilot,,,,,k,1.0137,0,48,48,48,1,machigau,Verb,to wrong,082-machigau.mp3,084-hajimeru.mp3,0.3,0,-0.3,0,2.1,0.5,k,,,,,,,,,,,,,,,,,,,,
69301,43,2023-10-27_11h57.21.184,V2_E2,2022.2.5,Win32,59.78715772,102,283,pilot,,,,,s,2.0818,0,49,49,49,1,futsufutsu,Mim,simmer,047-futsufutsu.mp3,048-wasawasa.mp3,-0.3,0,0.3,0,0.5,2.1,s,,,,,,,,,,,,,,,,,,,,
69301,43,2023-10-27_11h57.21.184,V2_E2,2022.2.5,Win32,59.78715772,102,283,pilot,,,,,,,,,,,,,,,,,,,,,,,,72,right,4.4146,,,,,,,,,,,,,,,,,
69301,43,2023-10-27_11h57.21.184,V2_E2,2022.2.5,Win32,59.78715772,102,283,pilot,,,,,,,,,,,,,,,,,,,,,,,,,,,female,right,5.897,,,,,,,,,,,,,,
69301,43,2023-10-27_11h57.21.184,V2_E2,2022.2.5,Win32,59.78715772,102,283,pilot,,,,,,,,,,,,,,,,,,,,,,,,,,,,,,english,right,4.2289,,,,,,,,,,,
69301,43,2023-10-27_11h57.21.184,V2_E2,2022.2.5,Win32,59.78715772,102,283,pilot,,,,,,,,,,,,,,,,,,,,,,,,,,,,,,,,,none,right,7.2102,,,,,,,,
69301,43,2023-10-27_11h57.21.184,V2_E2,2022.2.5,Win32,59.78715772,102,283,pilot,,,,,,,,,,,,,,,,,,,,,,,,,,,,,,,,,,,,1,25.7769,right,1.772,,,,
69301,43,2023-10-27_11h57.21.184,V2_E2,2022.2.5,Win32,59.78715772,102,283,pilot,,,,,,,,,,,,,,,,,,,,,,,,,,,,,,,,,,,,,,,,1,3.5245,right,0.9893
﻿session,group,date,expName,psychopyVersion,OS,frameRate,participant,expt,status,key_resp_2.keys,key_resp_2.rt,key_resp_6.keys,key_resp_6.rt,key_resp_3.keys,key_resp_3.rt,trials.thisRepN,trials.thisTrialN,trials.thisN,trials.thisIndex,trials.ran,Word,WordClass,Definition,Target,Foil,TargetPositionX,TargetPositionY,FoilPositionX,FoilPositionY,TargetTime,FoilTime,CorrectKey,textbox.text,enter.keys,enter.rt,textbox_2.text,enter_2.keys,enter_2.rt,textbox_3.text,enter_3.keys,enter_3.rt,textbox_4.text,enter_4.keys,enter_4.rt,slider.response,slider.rt,key_resp_4.keys,key_resp_4.rt,slider_2.response,slider_2.rt,key_resp_5.keys,key_resp_5.rt
69302,40,2023-10-27_11h57.27.985,V2_E2,2022.2.5,MacIntel,59.97361161,103,283,pilot,,,,,,,,,,,,,,,,,,,,,,,,,,,,,,,,,,,,,,,,,,,
69302,40,2023-10-27_11h57.27.985,V2_E2,2022.2.5,MacIntel,59.97361161,103,283,pilot,s,33.0315,,,,,,,,,,,,,,,,,,,,,,,,,,,,,,,,,,,,,,,,,
69302,40,2023-10-27_11h57.27.985,V2_E2,2022.2.5,MacIntel,59.97361161,103,283,pilot,,,s,2.976,,,,,,,,,,,,,,,,,,,,,,,,,,,,,,,,,,,,,,,
69302,40,2023-10-27_11h57.27.985,V2_E2,2022.2.5,MacIntel,59.97361161,103,283,pilot,,,,,s,3.6021,0,0,0,0,1,Left,AttentionCheck,to compare,Check_Left.mp3,silence.mp3,-0.3,0,0.3,0,0.5,10,s,,,,,,,,,,,,,,,,,,,,
69302,40,2023-10-27_11h57.27.985,V2_E2,2022.2.5,MacIntel,59.97361161,103,283,pilot,,,,,k,5.6111,0,1,1,1,1,chikaku,Noun,vicinity,073-chikaku.mp3,066-nakama.mp3,-0.3,0,0.3,0,0.5,2.1,s,,,,,,,,,,,,,,,,,,,,
69302,40,2023-10-27_11h57.27.985,V2_E2,2022.2.5,MacIntel,59.97361161,103,283,pilot,,,,,k,4.9935,0,2,2,2,1,kotoshi,Noun,this year,064-kotoshi.mp3,058-jimoto.mp3,-0.3,0,0.3,0,0.5,2.1,s,,,,,,,,,,,,,,,,,,,,
69302,40,2023-10-27_11h57.27.985,V2_E2,2022.2.5,MacIntel,59.97361161,103,283,pilot,,,,,s,3.4053,0,3,3,3,1,hiku,Verb,to pull,094-hiku.mp3,078-noberu.mp3,-0.3,0,0.3,0,0.5,2.1,s,,,,,,,,,,,,,,,,,,,,
69302,40,2023-10-27_11h57.27.985,V2_E2,2022.2.5,MacIntel,59.97361161,103,283,pilot,,,,,s,4.5621,0,4,4,4,1,majimena,Adj,serious,010-majimena.mp3,008-furina.mp3,-0.3,0,0.3,0,0.5,2.1,s,,,,,,,,,,,,,,,,,,,,
69302,40,2023-10-27_11h57.27.985,V2_E2,2022.2.5,MacIntel,59.97361161,103,283,pilot,,,,,k,1.7239,0,5,5,5,1,tobu,Verb,to jump,099-tobu.mp3,082-machigau.mp3,0.3,0,-0.3,0,2.1,0.5,k,,,,,,,,,,,,,,,,,,,,
69302,40,2023-10-27_11h57.27.985,V2_E2,2022.2.5,MacIntel,59.97361161,103,283,pilot,,,,,s,1.2817,0,6,6,6,1,kuchi,Noun,mouth,067-kuchi.mp3,065-matsuri.mp3,-0.3,0,0.3,0,0.5,2.1,s,,,,,,,,,,,,,,,,,,,,
69302,40,2023-10-27_11h57.27.985,V2_E2,2022.2.5,MacIntel,59.97361161,103,283,pilot,,,,,k,1.9667,0,7,7,7,1,gakun,Mim,dropping one's head or shoulders,039-gakun.mp3,048-wasawasa.mp3,-0.3,0,0.3,0,0.5,2.1,s,,,,,,,,,,,,,,,,,,,,
69302,40,2023-10-27_11h57.27.985,V2_E2,2022.2.5,MacIntel,59.97361161,103,283,pilot,,,,,k,1.3777,0,8,8,8,1,burari,Mim,wander,042-burari.mp3,041-chirochiro.mp3,-0.3,0,0.3,0,0.5,2.1,s,,,,,,,,,,,,,,,,,,,,
69302,40,2023-10-27_11h57.27.985,V2_E2,2022.2.5,MacIntel,59.97361161,103,283,pilot,,,,,s,2.5991,0,9,9,9,1,tsuratsura,Mim,spontaneously,029-tsuratsura.mp3,031-pikari.mp3,0.3,0,-0.3,0,2.1,0.5,k,,,,,,,,,,,,,,,,,,,,
69302,40,2023-10-27_11h57.27.985,V2_E2,2022.2.5,MacIntel,59.97361161,103,283,pilot,,,,,k,2.3404,0,10,10,10,1,buwabuwa,Mim,spongy,032-buwabuwa.mp3,037-debudebu.mp3,-0.3,0,0.3,0,0.5,2.1,s,,,,,,,,,,,,,,,,,,,,
69302,40,2023-10-27_11h57.27.985,V2_E2,2022.2.5,MacIntel,59.97361161,103,283,pilot,,,,,k,1.1339,0,11,11,11,1,yume,Noun,dream,062-yume.mp3,071-moji.mp3,-0.3,0,0.3,0,0.5,2.1,s,,,,,,,,,,,,,,,,,,,,
69302,40,2023-10-27_11h57.27.985,V2_E2,2022.2.5,MacIntel,59.97361161,103,283,pilot,,,,,s,0.8791,0,12,12,12,1,katachi,Noun,form,059-katachi.mp3,054-mukashi.mp3,-0.3,0,0.3,0,0.5,2.1,s,,,,,,,,,,,,,,,,,,,,
69302,40,2023-10-27_11h57.27.985,V2_E2,2022.2.5,MacIntel,59.97361161,103,283,pilot,,,,,s,1.252,0,13,13,13,1,marena,Adj,rare,005-marena.mp3,012-kitanai.mp3,0.3,0,-0.3,0,2.1,0.5,k,,,,,,,,,,,,,,,,,,,,
69302,40,2023-10-27_11h57.27.985,V2_E2,2022.2.5,MacIntel,59.97361161,103,283,pilot,,,,,k,1.712,0,14,14,14,1,namida,Noun,tears,063-namida.mp3,061-kagiri.mp3,0.3,0,-0.3,0,2.1,0.5,k,,,,,,,,,,,,,,,,,,,,
69302,40,2023-10-27_11h57.27.985,V2_E2,2022.2.5,MacIntel,59.97361161,103,283,pilot,,,,,s,1.5702,0,15,15,15,1,shiraberu,Verb,to look up,089-shiraberu.mp3,100-kasaneru.mp3,-0.3,0,0.3,0,0.5,2.1,s,,,,,,,,,,,,,,,,,,,,
69302,40,2023-10-27_11h57.27.985,V2_E2,2022.2.5,MacIntel,59.97361161,103,283,pilot,,,,,s,1.3955,0,16,16,16,1,garan,Mim,empty,038-garan.mp3,036-kotori.mp3,-0.3,0,0.3,0,0.5,2.1,s,,,,,,,,,,,,,,,,,,,,
69302,40,2023-10-27_11h57.27.985,V2_E2,2022.2.5,MacIntel,59.97361161,103,283,pilot,,,,,k,1.2723,0,17,17,17,1,nigatena,Adj,bad at,009-nigatena.mp3,003-mijikana.mp3,-0.3,0,0.3,0,0.5,2.1,s,,,,,,,,,,,,,,,,,,,,
69302,40,2023-10-27_11h57.27.985,V2_E2,2022.2.5,MacIntel,59.97361161,103,283,pilot,,,,,s,1.9945,0,18,18,18,1,hajimeru,Verb,to start,084-hajimeru.mp3,083-miseru.mp3,0.3,0,-0.3,0,2.1,0.5,k,,,,,,,,,,,,,,,,,,,,
69302,40,2023-10-27_11h57.27.985,V2_E2,2022.2.5,MacIntel,59.97361161,103,283,pilot,,,,,k,2.0806,0,19,19,19,1,furui,Adj,old,013-furui.mp3,019-hiroi.mp3,-0.3,0,0.3,0,0.5,2.1,s,,,,,,,,,,,,,,,,,,,,
69302,40,2023-10-27_11h57.27.985,V2_E2,2022.2.5,MacIntel,59.97361161,103,283,pilot,,,,,s,1.9289,0,20,20,20,1,tegami,Noun,letter (as in mail),051-tegami.mp3,055-hanashi.mp3,0.3,0,-0.3,0,2.1,0.5,k,,,,,,,,,,,,,,,,,,,,
69302,40,2023-10-27_11h57.27.985,V2_E2,2022.2.5,MacIntel,59.97361161,103,283,pilot,,,,,k,2.3532,0,21,21,21,1,tsubuyaku,Verb,to speak to oneself in a quiet voice,090-tsubuyaku.mp3,087-kasanaru.mp3,-0.3,0,0.3,0,0.5,2.1,s,,,,,,,,,,,,,,,,,,,,
69302,40,2023-10-27_11h57.27.985,V2_E2,2022.2.5,MacIntel,59.97361161,103,283,pilot,,,,,s,1.1322,0,22,22,22,1,karari,Mim,dry,026-karari.mp3,033-katsukatsu.mp3,0.3,0,-0.3,0,2.1,0.5,k,,,,,,,,,,,,,,,,,,,,
69302,40,2023-10-27_11h57.27.985,V2_E2,2022.2.5,MacIntel,59.97361161,103,283,pilot,,,,,s,1.2497,0,23,23,23,1,hana,Noun,flower,074-hana.mp3,057-sakana.mp3,-0.3,0,0.3,0,0.5,2.1,s,,,,,,,,,,,,,,,,,,,,
69302,40,2023-10-27_11h57.27.985,V2_E2,2022.2.5,MacIntel,59.97361161,103,283,pilot,,,,,k,2.4014,0,24,24,24,1,pekon,Mim,bowing lightly and casually,030-pekon.mp3,049-gatan.mp3,0.3,0,-0.3,0,2.1,0.5,k,,,,,,,,,,,,,,,,,,,,
69302,40,2023-10-27_11h57.27.985,V2_E2,2022.2.5,MacIntel,59.97361161,103,283,pilot,,,,,s,1.4155,0,25,25,25,1,tomonau,Verb,to accompany,080-tomonau.mp3,088-mitsumeru.mp3,-0.3,0,0.3,0,0.5,2.1,s,,,,,,,,,,,,,,,,,,,,
69302,40,2023-10-27_11h57.27.985,V2_E2,2022.2.5,MacIntel,59.97361161,103,283,pilot,,,,,k,1.6222,0,26,26,26,1,kebakeba,Mim,too much makeup,040-kebakeba.mp3,046-gusha.mp3,-0.3,0,0.3,0,0.5,2.1,s,,,,,,,,,,,,,,,,,,,,
69302,40,2023-10-27_11h57.27.985,V2_E2,2022.2.5,MacIntel,59.97361161,103,283,pilot,,,,,s,1.1083,0,27,27,27,1,betsuna,Adj,another,006-betsuna.mp3,011-toboshii.mp3,-0.3,0,0.3,0,0.5,2.1,s,,,,,,,,,,,,,,,,,,,,
69302,40,2023-10-27_11h57.27.985,V2_E2,2022.2.5,MacIntel,59.97361161,103,283,pilot,,,,,s,1.4725,0,28,28,28,1,mamoru,Verb,to protect,098-mamoru.mp3,092-shinu.mp3,0.3,0,-0.3,0,2.1,0.5,k,,,,,,,,,,,,,,,,,,,,
69302,40,2023-10-27_11h57.27.985,V2_E2,2022.2.5,MacIntel,59.97361161,103,283,pilot,,,,,s,1.1501,0,29,29,29,1,shobon,Mim,"downheartedly, dejectedly",044-shobon.mp3,035-busuri.mp3,-0.3,0,0.3,0,0.5,2.1,s,,,,,,,,,,,,,,,,,,,,
69302,40,2023-10-27_11h57.27.985,V2_E2,2022.2.5,MacIntel,59.97361161,103,283,pilot,,,,,k,1.318,0,30,30,30,1,mizu,Noun,water,060-mizu.mp3,075-hoka.mp3,0.3,0,-0.3,0,2.1,0.5,k,,,,,,,,,,,,,,,,,,,,
69302,40,2023-10-27_11h57.27.985,V2_E2,2022.2.5,MacIntel,59.97361161,103,283,pilot,,,,,s,1.0182,0,31,31,31,1,yutakana,Adj,rich,014-yutakana.mp3,004-takumina.mp3,-0.3,0,0.3,0,0.5,2.1,s,,,,,,,,,,,,,,,,,,,,
69302,40,2023-10-27_11h57.27.985,V2_E2,2022.2.5,MacIntel,59.97361161,103,283,pilot,,,,,s,0.9339,0,32,32,32,1,hiratai,Adj,flat,022-hiratai.mp3,020-kiyoi.mp3,0.3,0,-0.3,0,2.1,0.5,k,,,,,,,,,,,,,,,,,,,,
69302,40,2023-10-27_11h57.27.985,V2_E2,2022.2.5,MacIntel,59.97361161,103,283,pilot,,,,,k,1.3501,0,33,33,33,1,Right,AttentionCheck,to trust,Check_Right.mp3,silence.mp3,0.3,0,-0.3,0,0.5,10,k,,,,,,,,,,,,,,,,,,,,
69302,40,2023-10-27_11h57.27.985,V2_E2,2022.2.5,MacIntel,59.97361161,103,283,pilot,,,,,k,1.6114,0,34,34,34,1,yuku,Verb,to go,077-yuku.mp3,079-fukameru.mp3,-0.3,0,0.3,0,0.5,2.1,s,,,,,,,,,,,,,,,,,,,,
69302,40,2023-10-27_11h57.27.985,V2_E2,2022.2.5,MacIntel,59.97361161,103,283,pilot,,,,,s,1.1365,0,35,35,35,1,kurai,Adj,dark,016-kurai.mp3,023-shiroi.mp3,-0.3,0,0.3,0,0.5,2.1,s,,,,,,,,,,,,,,,,,,,,
69302,40,2023-10-27_11h57.27.985,V2_E2,2022.2.5,MacIntel,59.97361161,103,283,pilot,,,,,k,1.5303,0,36,36,36,1,nukeru,Verb,to escape,086-nukeru.mp3,076-yobu.mp3,0.3,0,-0.3,0,2.1,0.5,k,,,,,,,,,,,,,,,,,,,,
69302,40,2023-10-27_11h57.27.985,V2_E2,2022.2.5,MacIntel,59.97361161,103,283,pilot,,,,,k,1.0195,0,37,37,37,1,kotoba,Noun,word,072-kotoba.mp3,069-hikari.mp3,-0.3,0,0.3,0,0.5,2.1,s,,,,,,,,,,,,,,,,,,,,
69302,40,2023-10-27_11h57.27.985,V2_E2,2022.2.5,MacIntel,59.97361161,103,283,pilot,,,,,s,0.9549,0,38,38,38,1,noru,Verb,to get on,093-noru.mp3,096-sadameru.mp3,0.3,0,-0.3,0,2.1,0.5,k,,,,,,,,,,,,,,,,,,,,
69302,40,2023-10-27_11h57.27.985,V2_E2,2022.2.5,MacIntel,59.97361161,103,283,pilot,,,,,s,0.8158,0,39,39,39,1,marui,Adj,round,025-marui.mp3,002-tegaruna.mp3,-0.3,0,0.3,0,0.5,2.1,s,,,,,,,,,,,,,,,,,,,,
69302,40,2023-10-27_11h57.27.985,V2_E2,2022.2.5,MacIntel,59.97361161,103,283,pilot,,,,,s,2.3526,0,40,40,40,1,nosori,Mim,sluggishly,027-nosori.mp3,028-hiyohiyo.mp3,-0.3,0,0.3,0,0.5,2.1,s,,,,,,,,,,,,,,,,,,,,
69302,40,2023-10-27_11h57.27.985,V2_E2,2022.2.5,MacIntel,59.97361161,103,283,pilot,,,,,s,1.1471,0,41,41,41,1,wasureru,Verb,to forget,085-wasureru.mp3,097-hirogeru.mp3,-0.3,0,0.3,0,0.5,2.1,s,,,,,,,,,,,,,,,,,,,,
69302,40,2023-10-27_11h57.27.985,V2_E2,2022.2.5,MacIntel,59.97361161,103,283,pilot,,,,,s,1.8682,0,42,42,42,1,haha,Noun,mother,070-haha.mp3,068-hitotsu.mp3,-0.3,0,0.3,0,0.5,2.1,s,,,,,,,,,,,,,,,,,,,,
69302,40,2023-10-27_11h57.27.985,V2_E2,2022.2.5,MacIntel,59.97361161,103,283,pilot,,,,,k,1.0396,0,43,43,43,1,harari,Mim,gently falling,045-harari.mp3,043-petan.mp3,-0.3,0,0.3,0,0.5,2.1,s,,,,,,,,,,,,,,,,,,,,
69302,40,2023-10-27_11h57.27.985,V2_E2,2022.2.5,MacIntel,59.97361161,103,283,pilot,,,,,k,1.7968,0,44,44,44,1,funyafunya,Mim,"soft and limp; or mumbling, talking with food in mouth",050-funyafunya.mp3,034-goshagosha.mp3,0.3,0,-0.3,0,2.1,0.5,k,,,,,,,,,,,,,,,,,,,,
69302,40,2023-10-27_11h57.27.985,V2_E2,2022.2.5,MacIntel,59.97361161,103,283,pilot,,,,,s,1.1061,0,45,45,45,1,tsuma,Noun,wife,053-tsuma.mp3,052-kako.mp3,-0.3,0,0.3,0,0.5,2.1,s,,,,,,,,,,,,,,,,,,,,
69302,40,2023-10-27_11h57.27.985,V2_E2,2022.2.5,MacIntel,59.97361161,103,283,pilot,,,,,k,1.0155,0,46,46,46,1,kusai,Adj,smelly,015-kusai.mp3,021-samui.mp3,0.3,0,-0.3,0,2.1,0.5,k,,,,,,,,,,,,,,,,,,,,
69302,40,2023-10-27_11h57.27.985,V2_E2,2022.2.5,MacIntel,59.97361161,103,283,pilot,,,,,s,1.0032,0,47,47,47,1,hayamena,Adj,early,001-hayamena.mp3,018-tsuyoi.mp3,0.3,0,-0.3,0,2.1,0.5,k,,,,,,,,,,,,,,,,,,,,
69302,40,2023-10-27_11h57.27.985,V2_E2,2022.2.5,MacIntel,59.97361161,103,283,pilot,,,,,s,0.9579,0,48,48,48,1,hitoshii,Adj,equal,007-hitoshii.mp3,017-kimazui.mp3,0.3,0,-0.3,0,2.1,0.5,k,,,,,,,,,,,,,,,,,,,,
69302,40,2023-10-27_11h57.27.985,V2_E2,2022.2.5,MacIntel,59.97361161,103,283,pilot,,,,,k,1.0832,0,49,49,49,1,matomeru,Verb,to summarize,095-matomeru.mp3,081-naritatsu.mp3,-0.3,0,0.3,0,0.5,2.1,s,,,,,,,,,,,,,,,,,,,,
69302,40,2023-10-27_11h57.27.985,V2_E2,2022.2.5,MacIntel,59.97361161,103,283,pilot,,,,,,,,,,,,,,,,,,,,,,,,52,right,2.2934,,,,,,,,,,,,,,,,,
69302,40,2023-10-27_11h57.27.985,V2_E2,2022.2.5,MacIntel,59.97361161,103,283,pilot,,,,,,,,,,,,,,,,,,,,,,,,,,,female,right,1.9687,,,,,,,,,,,,,,
69302,40,2023-10-27_11h57.27.985,V2_E2,2022.2.5,MacIntel,59.97361161,103,283,pilot,,,,,,,,,,,,,,,,,,,,,,,,,,,,,,English,right,2.0146,,,,,,,,,,,
69302,40,2023-10-27_11h57.27.985,V2_E2,2022.2.5,MacIntel,59.97361161,103,283,pilot,,,,,,,,,,,,,,,,,,,,,,,,,,,,,,,,,None,right,4.6421,,,,,,,,
69302,40,2023-10-27_11h57.27.985,V2_E2,2022.2.5,MacIntel,59.97361161,103,283,pilot,,,,,,,,,,,,,,,,,,,,,,,,,,,,,,,,,,,,1,4.7523,right,1.2426,,,,
69302,40,2023-10-27_11h57.27.985,V2_E2,2022.2.5,MacIntel,59.97361161,103,283,pilot,,,,,,,,,,,,,,,,,,,,,,,,,,,,,,,,,,,,,,,,1,2.3858,right,0.6644
﻿session,group,date,expName,psychopyVersion,OS,frameRate,participant,expt,status,key_resp_2.keys,key_resp_2.rt,key_resp_6.keys,key_resp_6.rt,key_resp_3.keys,key_resp_3.rt,trials.thisRepN,trials.thisTrialN,trials.thisN,trials.thisIndex,trials.ran,Word,WordClass,Definition,Target,Foil,TargetPositionX,TargetPositionY,FoilPositionX,FoilPositionY,TargetTime,FoilTime,CorrectKey,textbox.text,enter.keys,enter.rt,textbox_2.text,enter_2.keys,enter_2.rt,textbox_3.text,enter_3.keys,enter_3.rt,textbox_4.text,enter_4.keys,enter_4.rt,slider.response,slider.rt,key_resp_4.keys,key_resp_4.rt,slider_2.response,slider_2.rt,key_resp_5.keys,key_resp_5.rt
69303,53,2023-10-27_11h57.28.444,V2_E2,2022.2.5,Win32,60.0060006,104,283,pilot,,,,,,,,,,,,,,,,,,,,,,,,,,,,,,,,,,,,,,,,,,,
69303,53,2023-10-27_11h57.28.444,V2_E2,2022.2.5,Win32,60.0060006,104,283,pilot,k,12.9557,,,,,,,,,,,,,,,,,,,,,,,,,,,,,,,,,,,,,,,,,
69303,53,2023-10-27_11h57.28.444,V2_E2,2022.2.5,Win32,60.0060006,104,283,pilot,,,k,3.8576,,,,,,,,,,,,,,,,,,,,,,,,,,,,,,,,,,,,,,,
69303,53,2023-10-27_11h57.28.444,V2_E2,2022.2.5,Win32,60.0060006,104,283,pilot,,,,,s,4.3264,0,0,0,0,1,Left,AttentionCheck,to compare,Check_Left.mp3,silence.mp3,-0.3,0,0.3,0,0.5,10,s,,,,,,,,,,,,,,,,,,,,
69303,53,2023-10-27_11h57.28.444,V2_E2,2022.2.5,Win32,60.0060006,104,283,pilot,,,,,s,3.2178,0,1,1,1,1,nukeru,Verb,to escape,086-nukeru.mp3,082-machigau.mp3,-0.3,0,0.3,0,0.5,2.1,s,,,,,,,,,,,,,,,,,,,,
69303,53,2023-10-27_11h57.28.444,V2_E2,2022.2.5,Win32,60.0060006,104,283,pilot,,,,,k,1.4669,0,2,2,2,1,matomeru,Verb,to summarize,095-matomeru.mp3,097-hirogeru.mp3,-0.3,0,0.3,0,0.5,2.1,s,,,,,,,,,,,,,,,,,,,,
69303,53,2023-10-27_11h57.28.444,V2_E2,2022.2.5,Win32,60.0060006,104,283,pilot,,,,,s,1.7985,0,3,3,3,1,noberu,Verb,to express,078-noberu.mp3,092-shinu.mp3,0.3,0,-0.3,0,2.1,0.5,k,,,,,,,,,,,,,,,,,,,,
69303,53,2023-10-27_11h57.28.444,V2_E2,2022.2.5,Win32,60.0060006,104,283,pilot,,,,,s,1.1513,0,4,4,4,1,nigatena,Adj,bad at,009-nigatena.mp3,018-tsuyoi.mp3,0.3,0,-0.3,0,2.1,0.5,k,,,,,,,,,,,,,,,,,,,,
69303,53,2023-10-27_11h57.28.444,V2_E2,2022.2.5,Win32,60.0060006,104,283,pilot,,,,,k,1.7003,0,5,5,5,1,yutakana,Adj,rich,014-yutakana.mp3,004-takumina.mp3,-0.3,0,0.3,0,0.5,2.1,s,,,,,,,,,,,,,,,,,,,,
69303,53,2023-10-27_11h57.28.444,V2_E2,2022.2.5,Win32,60.0060006,104,283,pilot,,,,,k,1.6686,0,6,6,6,1,kimazui,Adj,awkward,017-kimazui.mp3,005-marena.mp3,0.3,0,-0.3,0,2.1,0.5,k,,,,,,,,,,,,,,,,,,,,
69303,53,2023-10-27_11h57.28.444,V2_E2,2022.2.5,Win32,60.0060006,104,283,pilot,,,,,k,1.417,0,7,7,7,1,nemui,Adj,sleepy,024-nemui.mp3,025-marui.mp3,0.3,0,-0.3,0,2.1,0.5,k,,,,,,,,,,,,,,,,,,,,
69303,53,2023-10-27_11h57.28.444,V2_E2,2022.2.5,Win32,60.0060006,104,283,pilot,,,,,s,7.0499,0,8,8,8,1,chirochiro,Mim,"flicker of light, trickle of water",041-chirochiro.mp3,037-debudebu.mp3,-0.3,0,0.3,0,0.5,2.1,s,,,,,,,,,,,,,,,,,,,,
69303,53,2023-10-27_11h57.28.444,V2_E2,2022.2.5,Win32,60.0060006,104,283,pilot,,,,,s,2.3684,0,9,9,9,1,jimoto,Noun,local,058-jimoto.mp3,064-kotoshi.mp3,-0.3,0,0.3,0,0.5,2.1,s,,,,,,,,,,,,,,,,,,,,
69303,53,2023-10-27_11h57.28.444,V2_E2,2022.2.5,Win32,60.0060006,104,283,pilot,,,,,k,2.1848,0,10,10,10,1,harari,Mim,gently falling,045-harari.mp3,028-hiyohiyo.mp3,-0.3,0,0.3,0,0.5,2.1,s,,,,,,,,,,,,,,,,,,,,
69303,53,2023-10-27_11h57.28.444,V2_E2,2022.2.5,Win32,60.0060006,104,283,pilot,,,,,s,1.4073,0,11,11,11,1,yume,Noun,dream,062-yume.mp3,066-nakama.mp3,-0.3,0,0.3,0,0.5,2.1,s,,,,,,,,,,,,,,,,,,,,
69303,53,2023-10-27_11h57.28.444,V2_E2,2022.2.5,Win32,60.0060006,104,283,pilot,,,,,s,0.8358,0,12,12,12,1,katachi,Noun,form,059-katachi.mp3,060-mizu.mp3,-0.3,0,0.3,0,0.5,2.1,s,,,,,,,,,,,,,,,,,,,,
69303,53,2023-10-27_11h57.28.444,V2_E2,2022.2.5,Win32,60.0060006,104,283,pilot,,,,,k,0.6017,0,13,13,13,1,yobu,Verb,to call,076-yobu.mp3,096-sadameru.mp3,0.3,0,-0.3,0,2.1,0.5,k,,,,,,,,,,,,,,,,,,,,
69303,53,2023-10-27_11h57.28.444,V2_E2,2022.2.5,Win32,60.0060006,104,283,pilot,,,,,s,0.721,0,14,14,14,1,samui,Adj,cold,021-samui.mp3,015-kusai.mp3,-0.3,0,0.3,0,0.5,2.1,s,,,,,,,,,,,,,,,,,,,,
69303,53,2023-10-27_11h57.28.444,V2_E2,2022.2.5,Win32,60.0060006,104,283,pilot,,,,,s,2.14,0,15,15,15,1,yomu,Verb,to read,091-yomu.mp3,085-wasureru.mp3,0.3,0,-0.3,0,2.1,0.5,k,,,,,,,,,,,,,,,,,,,,
69303,53,2023-10-27_11h57.28.444,V2_E2,2022.2.5,Win32,60.0060006,104,283,pilot,,,,,s,1.8712,0,16,16,16,1,fukameru,Verb,to deepen,079-fukameru.mp3,080-tomonau.mp3,0.3,0,-0.3,0,2.1,0.5,k,,,,,,,,,,,,,,,,,,,,
69303,53,2023-10-27_11h57.28.444,V2_E2,2022.2.5,Win32,60.0060006,104,283,pilot,,,,,s,0.8831,0,17,17,17,1,buwabuwa,Mim,spongy,032-buwabuwa.mp3,030-pekon.mp3,0.3,0,-0.3,0,2.1,0.5,k,,,,,,,,,,,,,,,,,,,,
69303,53,2023-10-27_11h57.28.444,V2_E2,2022.2.5,Win32,60.0060006,104,283,pilot,,,,,k,1.6406,0,18,18,18,1,mukashi,Noun,long time ago,054-mukashi.mp3,052-kako.mp3,0.3,0,-0.3,0,2.1,0.5,k,,,,,,,,,,,,,,,,,,,,
69303,53,2023-10-27_11h57.28.444,V2_E2,2022.2.5,Win32,60.0060006,104,283,pilot,,,,,s,1.3491,0,19,19,19,1,toboshii,Adj,poor,011-toboshii.mp3,006-betsuna.mp3,0.3,0,-0.3,0,2.1,0.5,k,,,,,,,,,,,,,,,,,,,,
69303,53,2023-10-27_11h57.28.444,V2_E2,2022.2.5,Win32,60.0060006,104,283,pilot,,,,,s,0.6387,0,20,20,20,1,hikari,Noun,light,069-hikari.mp3,068-hitotsu.mp3,0.3,0,-0.3,0,2.1,0.5,k,,,,,,,,,,,,,,,,,,,,
69303,53,2023-10-27_11h57.28.444,V2_E2,2022.2.5,Win32,60.0060006,104,283,pilot,,,,,s,0.4859,0,21,21,21,1,kebakeba,Mim,too much makeup,040-kebakeba.mp3,035-busuri.mp3,0.3,0,-0.3,0,2.1,0.5,k,,,,,,,,,,,,,,,,,,,,
69303,53,2023-10-27_11h57.28.444,V2_E2,2022.2.5,Win32,60.0060006,104,283,pilot,,,,,k,1.7326,0,22,22,22,1,garan,Mim,empty,038-garan.mp3,031-pikari.mp3,0.3,0,-0.3,0,2.1,0.5,k,,,,,,,,,,,,,,,,,,,,
69303,53,2023-10-27_11h57.28.444,V2_E2,2022.2.5,Win32,60.0060006,104,283,pilot,,,,,s,1.4842,0,23,23,23,1,mijikana,Adj,familiar,003-mijikana.mp3,019-hiroi.mp3,0.3,0,-0.3,0,2.1,0.5,k,,,,,,,,,,,,,,,,,,,,
69303,53,2023-10-27_11h57.28.444,V2_E2,2022.2.5,Win32,60.0060006,104,283,pilot,,,,,s,1.301,0,24,24,24,1,hiratai,Adj,flat,022-hiratai.mp3,010-majimena.mp3,-0.3,0,0.3,0,0.5,2.1,s,,,,,,,,,,,,,,,,,,,,
69303,53,2023-10-27_11h57.28.444,V2_E2,2022.2.5,Win32,60.0060006,104,283,pilot,,,,,k,0.637,0,25,25,25,1,hitoshii,Adj,equal,007-hitoshii.mp3,012-kitanai.mp3,0.3,0,-0.3,0,2.1,0.5,k,,,,,,,,,,,,,,,,,,,,
69303,53,2023-10-27_11h57.28.444,V2_E2,2022.2.5,Win32,60.0060006,104,283,pilot,,,,,k,1.684,0,26,26,26,1,katsukatsu,Mim,"barely, scraping by",033-katsukatsu.mp3,044-shobon.mp3,0.3,0,-0.3,0,2.1,0.5,k,,,,,,,,,,,,,,,,,,,,
69303,53,2023-10-27_11h57.28.444,V2_E2,2022.2.5,Win32,60.0060006,104,283,pilot,,,,,s,0.5562,0,27,27,27,1,tobu,Verb,to jump,099-tobu.mp3,098-mamoru.mp3,-0.3,0,0.3,0,0.5,2.1,s,,,,,,,,,,,,,,,,,,,,
69303,53,2023-10-27_11h57.28.444,V2_E2,2022.2.5,Win32,60.0060006,104,283,pilot,,,,,s,0.91,0,28,28,28,1,hiku,Verb,to pull,094-hiku.mp3,089-shiraberu.mp3,-0.3,0,0.3,0,0.5,2.1,s,,,,,,,,,,,,,,,,,,,,
69303,53,2023-10-27_11h57.28.444,V2_E2,2022.2.5,Win32,60.0060006,104,283,pilot,,,,,k,3.554,0,29,29,29,1,Right,AttentionCheck,to trust,Check_Right.mp3,silence.mp3,0.3,0,-0.3,0,0.5,10,k,,,,,,,,,,,,,,,,,,,,
69303,53,2023-10-27_11h57.28.444,V2_E2,2022.2.5,Win32,60.0060006,104,283,pilot,,,,,s,1.605,0,30,30,30,1,kasaneru,Verb,to stack,100-kasaneru.mp3,093-noru.mp3,-0.3,0,0.3,0,0.5,2.1,s,,,,,,,,,,,,,,,,,,,,
69303,53,2023-10-27_11h57.28.444,V2_E2,2022.2.5,Win32,60.0060006,104,283,pilot,,,,,s,0.589,0,31,31,31,1,tsuma,Noun,wife,053-tsuma.mp3,057-sakana.mp3,0.3,0,-0.3,0,2.1,0.5,k,,,,,,,,,,,,,,,,,,,,
69303,53,2023-10-27_11h57.28.444,V2_E2,2022.2.5,Win32,60.0060006,104,283,pilot,,,,,k,0.6264,0,32,32,32,1,kuchi,Noun,mouth,067-kuchi.mp3,063-namida.mp3,-0.3,0,0.3,0,0.5,2.1,s,,,,,,,,,,,,,,,,,,,,
69303,53,2023-10-27_11h57.28.444,V2_E2,2022.2.5,Win32,60.0060006,104,283,pilot,,,,,s,1.0006,0,33,33,33,1,matsuri,Noun,festival,065-matsuri.mp3,061-kagiri.mp3,-0.3,0,0.3,0,0.5,2.1,s,,,,,,,,,,,,,,,,,,,,
69303,53,2023-10-27_11h57.28.444,V2_E2,2022.2.5,Win32,60.0060006,104,283,pilot,,,,,s,0.8331,0,34,34,34,1,shiroi,Adj,white,023-shiroi.mp3,016-kurai.mp3,-0.3,0,0.3,0,0.5,2.1,s,,,,,,,,,,,,,,,,,,,,
69303,53,2023-10-27_11h57.28.444,V2_E2,2022.2.5,Win32,60.0060006,104,283,pilot,,,,,k,0.8844,0,35,35,35,1,naritatsu,Verb,to consist,081-naritatsu.mp3,084-hajimeru.mp3,0.3,0,-0.3,0,2.1,0.5,k,,,,,,,,,,,,,,,,,,,,
69303,53,2023-10-27_11h57.28.444,V2_E2,2022.2.5,Win32,60.0060006,104,283,pilot,,,,,s,0.8504,0,36,36,36,1,futsufutsu,Mim,simmer,047-futsufutsu.mp3,039-gakun.mp3,0.3,0,-0.3,0,2.1,0.5,k,,,,,,,,,,,,,,,,,,,,
69303,53,2023-10-27_11h57.28.444,V2_E2,2022.2.5,Win32,60.0060006,104,283,pilot,,,,,s,1.3017,0,37,37,37,1,hoka,Noun,other,075-hoka.mp3,074-hana.mp3,0.3,0,-0.3,0,2.1,0.5,k,,,,,,,,,,,,,,,,,,,,
69303,53,2023-10-27_11h57.28.444,V2_E2,2022.2.5,Win32,60.0060006,104,283,pilot,,,,,k,0.9,0,38,38,38,1,burari,Mim,wander,042-burari.mp3,029-tsuratsura.mp3,-0.3,0,0.3,0,0.5,2.1,s,,,,,,,,,,,,,,,,,,,,
69303,53,2023-10-27_11h57.28.444,V2_E2,2022.2.5,Win32,60.0060006,104,283,pilot,,,,,s,0.5889,0,39,39,39,1,tochi,Noun,land,056-tochi.mp3,051-tegami.mp3,-0.3,0,0.3,0,0.5,2.1,s,,,,,,,,,,,,,,,,,,,,
69303,53,2023-10-27_11h57.28.444,V2_E2,2022.2.5,Win32,60.0060006,104,283,pilot,,,,,k,7.9364,0,40,40,40,1,kotori,Mim,sound of something little falling or moving,036-kotori.mp3,050-funyafunya.mp3,0.3,0,-0.3,0,2.1,0.5,k,,,,,,,,,,,,,,,,,,,,
69303,53,2023-10-27_11h57.28.444,V2_E2,2022.2.5,Win32,60.0060006,104,283,pilot,,,,,s,0.9191,0,41,41,41,1,hayamena,Adj,early,001-hayamena.mp3,013-furui.mp3,0.3,0,-0.3,0,2.1,0.5,k,,,,,,,,,,,,,,,,,,,,
69303,53,2023-10-27_11h57.28.444,V2_E2,2022.2.5,Win32,60.0060006,104,283,pilot,,,,,s,1.8014,0,42,42,42,1,chikaku,Noun,vicinity,073-chikaku.mp3,071-moji.mp3,0.3,0,-0.3,0,2.1,0.5,k,,,,,,,,,,,,,,,,,,,,
69303,53,2023-10-27_11h57.28.444,V2_E2,2022.2.5,Win32,60.0060006,104,283,pilot,,,,,s,0.569,0,43,43,43,1,tegaruna,Adj,simple,002-tegaruna.mp3,020-kiyoi.mp3,-0.3,0,0.3,0,0.5,2.1,s,,,,,,,,,,,,,,,,,,,,
69303,53,2023-10-27_11h57.28.444,V2_E2,2022.2.5,Win32,60.0060006,104,283,pilot,,,,,k,2.6381,0,44,44,44,1,goshagosha,Mim,messy,034-goshagosha.mp3,043-petan.mp3,-0.3,0,0.3,0,0.5,2.1,s,,,,,,,,,,,,,,,,,,,,
69303,53,2023-10-27_11h57.28.444,V2_E2,2022.2.5,Win32,60.0060006,104,283,pilot,,,,,k,2.0206,0,45,45,45,1,kotoba,Noun,word,072-kotoba.mp3,055-hanashi.mp3,-0.3,0,0.3,0,0.5,2.1,s,,,,,,,,,,,,,,,,,,,,
69303,53,2023-10-27_11h57.28.444,V2_E2,2022.2.5,Win32,60.0060006,104,283,pilot,,,,,s,1.4414,0,46,46,46,1,gatan,Mim,with a bang,049-gatan.mp3,046-gusha.mp3,-0.3,0,0.3,0,0.5,2.1,s,,,,,,,,,,,,,,,,,,,,
69303,53,2023-10-27_11h57.28.444,V2_E2,2022.2.5,Win32,60.0060006,104,283,pilot,,,,,k,2.536,0,47,47,47,1,miseru,Verb,to show,083-miseru.mp3,090-tsubuyaku.mp3,-0.3,0,0.3,0,0.5,2.1,s,,,,,,,,,,,,,,,,,,,,
69303,53,2023-10-27_11h57.28.444,V2_E2,2022.2.5,Win32,60.0060006,104,283,pilot,,,,,s,1.1201,0,48,48,48,1,nosori,Mim,sluggishly,027-nosori.mp3,048-wasawasa.mp3,-0.3,0,0.3,0,0.5,2.1,s,,,,,,,,,,,,,,,,,,,,
69303,53,2023-10-27_11h57.28.444,V2_E2,2022.2.5,Win32,60.0060006,104,283,pilot,,,,,s,0.6805,0,49,49,49,1,mitsumeru,Verb,to stare,088-mitsumeru.mp3,077-yuku.mp3,0.3,0,-0.3,0,2.1,0.5,k,,,,,,,,,,,,,,,,,,,,
69303,53,2023-10-27_11h57.28.444,V2_E2,2022.2.5,Win32,60.0060006,104,283,pilot,,,,,,,,,,,,,,,,,,,,,,,,39,right,5.7852,,,,,,,,,,,,,,,,,
69303,53,2023-10-27_11h57.28.444,V2_E2,2022.2.5,Win32,60.0060006,104,283,pilot,,,,,,,,,,,,,,,,,,,,,,,,,,,male,right,3.3811,,,,,,,,,,,,,,
69303,53,2023-10-27_11h57.28.444,V2_E2,2022.2.5,Win32,60.0060006,104,283,pilot,,,,,,,,,,,,,,,,,,,,,,,,,,,,,,english,right,5.6739,,,,,,,,,,,
69303,53,2023-10-27_11h57.28.444,V2_E2,2022.2.5,Win32,60.0060006,104,283,pilot,,,,,,,,,,,,,,,,,,,,,,,,,,,,,,,,,none,right,7.7296,,,,,,,,
69303,53,2023-10-27_11h57.28.444,V2_E2,2022.2.5,Win32,60.0060006,104,283,pilot,,,,,,,,,,,,,,,,,,,,,,,,,,,,,,,,,,,,1,12.1129,right,26.2646,,,,
69303,53,2023-10-27_11h57.28.444,V2_E2,2022.2.5,Win32,60.0060006,104,283,pilot,,,,,,,,,,,,,,,,,,,,,,,,,,,,,,,,,,,,,,,,1,5.1657,right,1.3572
﻿session,group,date,expName,psychopyVersion,OS,frameRate,participant,expt,status,key_resp_2.keys,key_resp_2.rt,key_resp_6.keys,key_resp_6.rt,key_resp_3.keys,key_resp_3.rt,trials.thisRepN,trials.thisTrialN,trials.thisN,trials.thisIndex,trials.ran,Word,WordClass,Definition,Target,Foil,TargetPositionX,TargetPositionY,FoilPositionX,FoilPositionY,TargetTime,FoilTime,CorrectKey,textbox.text,enter.keys,enter.rt,textbox_2.text,enter_2.keys,enter_2.rt,textbox_3.text,enter_3.keys,enter_3.rt,textbox_4.text,enter_4.keys,enter_4.rt,slider.response,slider.rt,key_resp_4.keys,key_resp_4.rt,slider_2.response,slider_2.rt,key_resp_5.keys,key_resp_5.rt
69304,114,2023-10-27_11h57.37.163,V2_E2,2022.2.5,Win32,59.99520038,105,283,pilot,,,,,,,,,,,,,,,,,,,,,,,,,,,,,,,,,,,,,,,,,,,
69304,114,2023-10-27_11h57.37.163,V2_E2,2022.2.5,Win32,59.99520038,105,283,pilot,k,67.1335,,,,,,,,,,,,,,,,,,,,,,,,,,,,,,,,,,,,,,,,,
69304,114,2023-10-27_11h57.37.163,V2_E2,2022.2.5,Win32,59.99520038,105,283,pilot,,,k,57.0798,,,,,,,,,,,,,,,,,,,,,,,,,,,,,,,,,,,,,,,
69304,114,2023-10-27_11h57.37.163,V2_E2,2022.2.5,Win32,59.99520038,105,283,pilot,,,,,s,2.881,0,0,0,0,1,Left,AttentionCheck,to compare,Check_Left.mp3,silence.mp3,-0.3,0,0.3,0,0.5,10,s,,,,,,,,,,,,,,,,,,,,
69304,114,2023-10-27_11h57.37.163,V2_E2,2022.2.5,Win32,59.99520038,105,283,pilot,,,,,k,4.1354,0,1,1,1,1,tsuma,Noun,wife,053-tsuma.mp3,055-hanashi.mp3,-0.3,0,0.3,0,0.5,2.1,s,,,,,,,,,,,,,,,,,,,,
69304,114,2023-10-27_11h57.37.163,V2_E2,2022.2.5,Win32,59.99520038,105,283,pilot,,,,,s,5.0163,0,2,2,2,1,kiyoi,Adj,pure,020-kiyoi.mp3,023-shiroi.mp3,0.3,0,-0.3,0,2.1,0.5,k,,,,,,,,,,,,,,,,,,,,
69304,114,2023-10-27_11h57.37.163,V2_E2,2022.2.5,Win32,59.99520038,105,283,pilot,,,,,k,8.1011,0,3,3,3,1,mizu,Noun,water,060-mizu.mp3,071-moji.mp3,-0.3,0,0.3,0,0.5,2.1,s,,,,,,,,,,,,,,,,,,,,
69304,114,2023-10-27_11h57.37.163,V2_E2,2022.2.5,Win32,59.99520038,105,283,pilot,,,,,s,2.4809,0,4,4,4,1,kimazui,Adj,awkward,017-kimazui.mp3,002-tegaruna.mp3,-0.3,0,0.3,0,0.5,2.1,s,,,,,,,,,,,,,,,,,,,,
69304,114,2023-10-27_11h57.37.163,V2_E2,2022.2.5,Win32,59.99520038,105,283,pilot,,,,,k,3.3434,0,5,5,5,1,matsuri,Noun,festival,065-matsuri.mp3,063-namida.mp3,0.3,0,-0.3,0,2.1,0.5,k,,,,,,,,,,,,,,,,,,,,
69304,114,2023-10-27_11h57.37.163,V2_E2,2022.2.5,Win32,59.99520038,105,283,pilot,,,,,k,5.2763,0,6,6,6,1,yume,Noun,dream,062-yume.mp3,064-kotoshi.mp3,0.3,0,-0.3,0,2.1,0.5,k,,,,,,,,,,,,,,,,,,,,
69304,114,2023-10-27_11h57.37.163,V2_E2,2022.2.5,Win32,59.99520038,105,283,pilot,,,,,k,11.4477,0,7,7,7,1,haha,Noun,mother,070-haha.mp3,072-kotoba.mp3,-0.3,0,0.3,0,0.5,2.1,s,,,,,,,,,,,,,,,,,,,,
69304,114,2023-10-27_11h57.37.163,V2_E2,2022.2.5,Win32,59.99520038,105,283,pilot,,,,,k,1.8887,0,8,8,8,1,hoka,Noun,other,075-hoka.mp3,061-kagiri.mp3,0.3,0,-0.3,0,2.1,0.5,k,,,,,,,,,,,,,,,,,,,,
69304,114,2023-10-27_11h57.37.163,V2_E2,2022.2.5,Win32,59.99520038,105,283,pilot,,,,,s,3.8867,0,9,9,9,1,mukashi,Noun,long time ago,054-mukashi.mp3,074-hana.mp3,-0.3,0,0.3,0,0.5,2.1,s,,,,,,,,,,,,,,,,,,,,
69304,114,2023-10-27_11h57.37.163,V2_E2,2022.2.5,Win32,59.99520038,105,283,pilot,,,,,s,3.3487,0,10,10,10,1,fukameru,Verb,to deepen,079-fukameru.mp3,097-hirogeru.mp3,0.3,0,-0.3,0,2.1,0.5,k,,,,,,,,,,,,,,,,,,,,
69304,114,2023-10-27_11h57.37.163,V2_E2,2022.2.5,Win32,59.99520038,105,283,pilot,,,,,k,3.3125,0,11,11,11,1,noberu,Verb,to express,078-noberu.mp3,092-shinu.mp3,0.3,0,-0.3,0,2.1,0.5,k,,,,,,,,,,,,,,,,,,,,
69304,114,2023-10-27_11h57.37.163,V2_E2,2022.2.5,Win32,59.99520038,105,283,pilot,,,,,s,1.9768,0,12,12,12,1,yobu,Verb,to call,076-yobu.mp3,087-kasanaru.mp3,-0.3,0,0.3,0,0.5,2.1,s,,,,,,,,,,,,,,,,,,,,
69304,114,2023-10-27_11h57.37.163,V2_E2,2022.2.5,Win32,59.99520038,105,283,pilot,,,,,k,2.186,0,13,13,13,1,tomonau,Verb,to accompany,080-tomonau.mp3,088-mitsumeru.mp3,0.3,0,-0.3,0,2.1,0.5,k,,,,,,,,,,,,,,,,,,,,
69304,114,2023-10-27_11h57.37.163,V2_E2,2022.2.5,Win32,59.99520038,105,283,pilot,,,,,s,3.3192,0,14,14,14,1,wasureru,Verb,to forget,085-wasureru.mp3,081-naritatsu.mp3,0.3,0,-0.3,0,2.1,0.5,k,,,,,,,,,,,,,,,,,,,,
69304,114,2023-10-27_11h57.37.163,V2_E2,2022.2.5,Win32,59.99520038,105,283,pilot,,,,,k,3.5782,0,15,15,15,1,yuku,Verb,to go,077-yuku.mp3,091-yomu.mp3,0.3,0,-0.3,0,2.1,0.5,k,,,,,,,,,,,,,,,,,,,,
69304,114,2023-10-27_11h57.37.163,V2_E2,2022.2.5,Win32,59.99520038,105,283,pilot,,,,,s,2.0657,0,16,16,16,1,gatan,Mim,with a bang,049-gatan.mp3,029-tsuratsura.mp3,-0.3,0,0.3,0,0.5,2.1,s,,,,,,,,,,,,,,,,,,,,
69304,114,2023-10-27_11h57.37.163,V2_E2,2022.2.5,Win32,59.99520038,105,283,pilot,,,,,s,1.5175,0,17,17,17,1,kuchi,Noun,mouth,067-kuchi.mp3,058-jimoto.mp3,0.3,0,-0.3,0,2.1,0.5,k,,,,,,,,,,,,,,,,,,,,
69304,114,2023-10-27_11h57.37.163,V2_E2,2022.2.5,Win32,59.99520038,105,283,pilot,,,,,s,1.567,0,18,18,18,1,samui,Adj,cold,021-samui.mp3,009-nigatena.mp3,-0.3,0,0.3,0,0.5,2.1,s,,,,,,,,,,,,,,,,,,,,
69304,114,2023-10-27_11h57.37.163,V2_E2,2022.2.5,Win32,59.99520038,105,283,pilot,,,,,k,1.4648,0,19,19,19,1,debudebu,Mim,fat,037-debudebu.mp3,039-gakun.mp3,-0.3,0,0.3,0,0.5,2.1,s,,,,,,,,,,,,,,,,,,,,
69304,114,2023-10-27_11h57.37.163,V2_E2,2022.2.5,Win32,59.99520038,105,283,pilot,,,,,k,3.4484,0,20,20,20,1,buwabuwa,Mim,spongy,032-buwabuwa.mp3,041-chirochiro.mp3,0.3,0,-0.3,0,2.1,0.5,k,,,,,,,,,,,,,,,,,,,,
69304,114,2023-10-27_11h57.37.163,V2_E2,2022.2.5,Win32,59.99520038,105,283,pilot,,,,,s,7.0455,0,21,21,21,1,petan,Mim,sound of something making firm contact with a flat surface,043-petan.mp3,036-kotori.mp3,-0.3,0,0.3,0,0.5,2.1,s,,,,,,,,,,,,,,,,,,,,
69304,114,2023-10-27_11h57.37.163,V2_E2,2022.2.5,Win32,59.99520038,105,283,pilot,,,,,s,6.0618,0,22,22,22,1,hiratai,Adj,flat,022-hiratai.mp3,025-marui.mp3,0.3,0,-0.3,0,2.1,0.5,k,,,,,,,,,,,,,,,,,,,,
69304,114,2023-10-27_11h57.37.163,V2_E2,2022.2.5,Win32,59.99520038,105,283,pilot,,,,,k,2.995,0,23,23,23,1,kusai,Adj,smelly,015-kusai.mp3,012-kitanai.mp3,-0.3,0,0.3,0,0.5,2.1,s,,,,,,,,,,,,,,,,,,,,
69304,114,2023-10-27_11h57.37.163,V2_E2,2022.2.5,Win32,59.99520038,105,283,pilot,,,,,s,2.0883,0,24,24,24,1,kurai,Adj,dark,016-kurai.mp3,007-hitoshii.mp3,0.3,0,-0.3,0,2.1,0.5,k,,,,,,,,,,,,,,,,,,,,
69304,114,2023-10-27_11h57.37.163,V2_E2,2022.2.5,Win32,59.99520038,105,283,pilot,,,,,s,1.5141,0,25,25,25,1,wasawasa,Mim,restless,048-wasawasa.mp3,042-burari.mp3,-0.3,0,0.3,0,0.5,2.1,s,,,,,,,,,,,,,,,,,,,,
69304,114,2023-10-27_11h57.37.163,V2_E2,2022.2.5,Win32,59.99520038,105,283,pilot,,,,,k,3.1639,0,26,26,26,1,tsubuyaku,Verb,to speak to oneself in a quiet voice,090-tsubuyaku.mp3,095-matomeru.mp3,0.3,0,-0.3,0,2.1,0.5,k,,,,,,,,,,,,,,,,,,,,
69304,114,2023-10-27_11h57.37.163,V2_E2,2022.2.5,Win32,59.99520038,105,283,pilot,,,,,k,4.2654,0,27,27,27,1,nosori,Mim,sluggishly,027-nosori.mp3,045-harari.mp3,0.3,0,-0.3,0,2.1,0.5,k,,,,,,,,,,,,,,,,,,,,
69304,114,2023-10-27_11h57.37.163,V2_E2,2022.2.5,Win32,59.99520038,105,283,pilot,,,,,s,2.768,0,28,28,28,1,goshagosha,Mim,messy,034-goshagosha.mp3,040-kebakeba.mp3,0.3,0,-0.3,0,2.1,0.5,k,,,,,,,,,,,,,,,,,,,,
69304,114,2023-10-27_11h57.37.163,V2_E2,2022.2.5,Win32,59.99520038,105,283,pilot,,,,,k,4.5769,0,29,29,29,1,tochi,Noun,land,056-tochi.mp3,069-hikari.mp3,0.3,0,-0.3,0,2.1,0.5,k,,,,,,,,,,,,,,,,,,,,
69304,114,2023-10-27_11h57.37.163,V2_E2,2022.2.5,Win32,59.99520038,105,283,pilot,,,,,k,4.9285,0,30,30,30,1,yutakana,Adj,rich,014-yutakana.mp3,024-nemui.mp3,0.3,0,-0.3,0,2.1,0.5,k,,,,,,,,,,,,,,,,,,,,
69304,114,2023-10-27_11h57.37.163,V2_E2,2022.2.5,Win32,59.99520038,105,283,pilot,,,,,k,4.5505,0,31,31,31,1,furina,Adj,disadvantaged,008-furina.mp3,001-hayamena.mp3,0.3,0,-0.3,0,2.1,0.5,k,,,,,,,,,,,,,,,,,,,,
69304,114,2023-10-27_11h57.37.163,V2_E2,2022.2.5,Win32,59.99520038,105,283,pilot,,,,,k,2.7475,0,32,32,32,1,machigau,Verb,to wrong,082-machigau.mp3,100-kasaneru.mp3,-0.3,0,0.3,0,0.5,2.1,s,,,,,,,,,,,,,,,,,,,,
69304,114,2023-10-27_11h57.37.163,V2_E2,2022.2.5,Win32,59.99520038,105,283,pilot,,,,,k,2.7798,0,33,33,33,1,hiyohiyo,Mim,"moving like a chick, chick-like",028-hiyohiyo.mp3,038-garan.mp3,0.3,0,-0.3,0,2.1,0.5,k,,,,,,,,,,,,,,,,,,,,
69304,114,2023-10-27_11h57.37.163,V2_E2,2022.2.5,Win32,59.99520038,105,283,pilot,,,,,k,2.2292,0,34,34,34,1,Right,AttentionCheck,to trust,Check_Right.mp3,silence.mp3,0.3,0,-0.3,0,0.5,10,k,,,,,,,,,,,,,,,,,,,,
69304,114,2023-10-27_11h57.37.163,V2_E2,2022.2.5,Win32,59.99520038,105,283,pilot,,,,,k,5.655,0,35,35,35,1,pekon,Mim,bowing lightly and casually,030-pekon.mp3,046-gusha.mp3,-0.3,0,0.3,0,0.5,2.1,s,,,,,,,,,,,,,,,,,,,,
69304,114,2023-10-27_11h57.37.163,V2_E2,2022.2.5,Win32,59.99520038,105,283,pilot,,,,,s,1.9389,0,36,36,36,1,hitotsu,Noun,one,068-hitotsu.mp3,051-tegami.mp3,-0.3,0,0.3,0,0.5,2.1,s,,,,,,,,,,,,,,,,,,,,
69304,114,2023-10-27_11h57.37.163,V2_E2,2022.2.5,Win32,59.99520038,105,283,pilot,,,,,s,2.7112,0,37,37,37,1,chikaku,Noun,vicinity,073-chikaku.mp3,059-katachi.mp3,0.3,0,-0.3,0,2.1,0.5,k,,,,,,,,,,,,,,,,,,,,
69304,114,2023-10-27_11h57.37.163,V2_E2,2022.2.5,Win32,59.99520038,105,283,pilot,,,,,s,1.8126,0,38,38,38,1,betsuna,Adj,another,006-betsuna.mp3,019-hiroi.mp3,0.3,0,-0.3,0,2.1,0.5,k,,,,,,,,,,,,,,,,,,,,
69304,114,2023-10-27_11h57.37.163,V2_E2,2022.2.5,Win32,59.99520038,105,283,pilot,,,,,k,4.72,0,39,39,39,1,tsuyoi,Adj,strong,018-tsuyoi.mp3,003-mijikana.mp3,-0.3,0,0.3,0,0.5,2.1,s,,,,,,,,,,,,,,,,,,,,
69304,114,2023-10-27_11h57.37.163,V2_E2,2022.2.5,Win32,59.99520038,105,283,pilot,,,,,s,6.8468,0,40,40,40,1,hajimeru,Verb,to start,084-hajimeru.mp3,098-mamoru.mp3,0.3,0,-0.3,0,2.1,0.5,k,,,,,,,,,,,,,,,,,,,,
69304,114,2023-10-27_11h57.37.163,V2_E2,2022.2.5,Win32,59.99520038,105,283,pilot,,,,,s,1.3106,0,41,41,41,1,hiku,Verb,to pull,094-hiku.mp3,096-sadameru.mp3,0.3,0,-0.3,0,2.1,0.5,k,,,,,,,,,,,,,,,,,,,,
69304,114,2023-10-27_11h57.37.163,V2_E2,2022.2.5,Win32,59.99520038,105,283,pilot,,,,,k,3.1297,0,42,42,42,1,busuri,Mim,sound of stabbing,035-busuri.mp3,047-futsufutsu.mp3,-0.3,0,0.3,0,0.5,2.1,s,,,,,,,,,,,,,,,,,,,,
69304,114,2023-10-27_11h57.37.163,V2_E2,2022.2.5,Win32,59.99520038,105,283,pilot,,,,,s,2.0524,0,43,43,43,1,takumina,Adj,skillful,004-takumina.mp3,011-toboshii.mp3,0.3,0,-0.3,0,2.1,0.5,k,,,,,,,,,,,,,,,,,,,,
69304,114,2023-10-27_11h57.37.163,V2_E2,2022.2.5,Win32,59.99520038,105,283,pilot,,,,,k,3.3131,0,44,44,44,1,miseru,Verb,to show,083-miseru.mp3,093-noru.mp3,0.3,0,-0.3,0,2.1,0.5,k,,,,,,,,,,,,,,,,,,,,
69304,114,2023-10-27_11h57.37.163,V2_E2,2022.2.5,Win32,59.99520038,105,283,pilot,,,,,s,3.0945,0,45,45,45,1,shobon,Mim,"downheartedly, dejectedly",044-shobon.mp3,031-pikari.mp3,0.3,0,-0.3,0,2.1,0.5,k,,,,,,,,,,,,,,,,,,,,
69304,114,2023-10-27_11h57.37.163,V2_E2,2022.2.5,Win32,59.99520038,105,283,pilot,,,,,s,4.4808,0,46,46,46,1,karari,Mim,dry,026-karari.mp3,050-funyafunya.mp3,-0.3,0,0.3,0,0.5,2.1,s,,,,,,,,,,,,,,,,,,,,
69304,114,2023-10-27_11h57.37.163,V2_E2,2022.2.5,Win32,59.99520038,105,283,pilot,,,,,k,0.8013,0,47,47,47,1,tobu,Verb,to jump,099-tobu.mp3,086-nukeru.mp3,-0.3,0,0.3,0,0.5,2.1,s,,,,,,,,,,,,,,,,,,,,
69304,114,2023-10-27_11h57.37.163,V2_E2,2022.2.5,Win32,59.99520038,105,283,pilot,,,,,k,1.5238,0,48,48,48,1,marena,Adj,rare,005-marena.mp3,013-furui.mp3,-0.3,0,0.3,0,0.5,2.1,s,,,,,,,,,,,,,,,,,,,,
69304,114,2023-10-27_11h57.37.163,V2_E2,2022.2.5,Win32,59.99520038,105,283,pilot,,,,,k,5.5473,0,49,49,49,1,sakana,Noun,fish,057-sakana.mp3,066-nakama.mp3,0.3,0,-0.3,0,2.1,0.5,k,,,,,,,,,,,,,,,,,,,,
69304,114,2023-10-27_11h57.37.163,V2_E2,2022.2.5,Win32,59.99520038,105,283,pilot,,,,,,,,,,,,,,,,,,,,,,,,49,right,8.7262,,,,,,,,,,,,,,,,,
69304,114,2023-10-27_11h57.37.163,V2_E2,2022.2.5,Win32,59.99520038,105,283,pilot,,,,,,,,,,,,,,,,,,,,,,,,,,,FEMALE,right,6.1463,,,,,,,,,,,,,,
69304,114,2023-10-27_11h57.37.163,V2_E2,2022.2.5,Win32,59.99520038,105,283,pilot,,,,,,,,,,,,,,,,,,,,,,,,,,,,,,DUTCH,right,2.7613,,,,,,,,,,,
69304,114,2023-10-27_11h57.37.163,V2_E2,2022.2.5,Win32,59.99520038,105,283,pilot,,,,,,,,,,,,,,,,,,,,,,,,,,,,,,,,,ENGLISH,right,7.4054,,,,,,,,
69304,114,2023-10-27_11h57.37.163,V2_E2,2022.2.5,Win32,59.99520038,105,283,pilot,,,,,,,,,,,,,,,,,,,,,,,,,,,,,,,,,,,,1,11.6968,right,2.2348,,,,
69304,114,2023-10-27_11h57.37.163,V2_E2,2022.2.5,Win32,59.99520038,105,283,pilot,,,,,,,,,,,,,,,,,,,,,,,,,,,,,,,,,,,,,,,,1,7.1554,right,1.7044
﻿session,group,date,expName,psychopyVersion,OS,frameRate,participant,expt,status,key_resp_2.keys,key_resp_2.rt,key_resp_6.keys,key_resp_6.rt,key_resp_3.keys,key_resp_3.rt,trials.thisRepN,trials.thisTrialN,trials.thisN,trials.thisIndex,trials.ran,Word,WordClass,Definition,Target,Foil,TargetPositionX,TargetPositionY,FoilPositionX,FoilPositionY,TargetTime,FoilTime,CorrectKey,textbox.text,enter.keys,enter.rt,textbox_2.text,enter_2.keys,enter_2.rt,textbox_3.text,enter_3.keys,enter_3.rt,textbox_4.text,enter_4.keys,enter_4.rt,slider.response,slider.rt,key_resp_4.keys,key_resp_4.rt,slider_2.response,slider_2.rt,key_resp_5.keys,key_resp_5.rt
69305,48,2023-10-27_11h57.41.772,V2_E2,2022.2.5,Win32,30.00750188,106,283,pilot,,,,,,,,,,,,,,,,,,,,,,,,,,,,,,,,,,,,,,,,,,,
69305,48,2023-10-27_11h57.41.772,V2_E2,2022.2.5,Win32,30.00750188,106,283,pilot,s,6.376,,,,,,,,,,,,,,,,,,,,,,,,,,,,,,,,,,,,,,,,,
69305,48,2023-10-27_11h57.41.772,V2_E2,2022.2.5,Win32,30.00750188,106,283,pilot,,,s,3.869,,,,,,,,,,,,,,,,,,,,,,,,,,,,,,,,,,,,,,,
69305,48,2023-10-27_11h57.41.772,V2_E2,2022.2.5,Win32,30.00750188,106,283,pilot,,,,,s,1.764,0,0,0,0,1,Left,AttentionCheck,to compare,Check_Left.mp3,silence.mp3,-0.3,0,0.3,0,0.5,10,s,,,,,,,,,,,,,,,,,,,,
69305,48,2023-10-27_11h57.41.772,V2_E2,2022.2.5,Win32,30.00750188,106,283,pilot,,,,,k,2.3315,0,1,1,1,1,tomonau,Verb,to accompany,080-tomonau.mp3,097-hirogeru.mp3,-0.3,0,0.3,0,0.5,2.1,s,,,,,,,,,,,,,,,,,,,,
69305,48,2023-10-27_11h57.41.772,V2_E2,2022.2.5,Win32,30.00750188,106,283,pilot,,,,,s,1.4732,0,2,2,2,1,naritatsu,Verb,to consist,081-naritatsu.mp3,096-sadameru.mp3,-0.3,0,0.3,0,0.5,2.1,s,,,,,,,,,,,,,,,,,,,,
69305,48,2023-10-27_11h57.41.772,V2_E2,2022.2.5,Win32,30.00750188,106,283,pilot,,,,,s,0.542,0,3,3,3,1,kiyoi,Adj,pure,020-kiyoi.mp3,018-tsuyoi.mp3,0.3,0,-0.3,0,2.1,0.5,k,,,,,,,,,,,,,,,,,,,,
69305,48,2023-10-27_11h57.41.772,V2_E2,2022.2.5,Win32,30.00750188,106,283,pilot,,,,,s,1.7611,0,4,4,4,1,tsuratsura,Mim,spontaneously,029-tsuratsura.mp3,039-gakun.mp3,-0.3,0,0.3,0,0.5,2.1,s,,,,,,,,,,,,,,,,,,,,
69305,48,2023-10-27_11h57.41.772,V2_E2,2022.2.5,Win32,30.00750188,106,283,pilot,,,,,k,0.8849,0,5,5,5,1,mitsumeru,Verb,to stare,088-mitsumeru.mp3,079-fukameru.mp3,0.3,0,-0.3,0,2.1,0.5,k,,,,,,,,,,,,,,,,,,,,
69305,48,2023-10-27_11h57.41.772,V2_E2,2022.2.5,Win32,30.00750188,106,283,pilot,,,,,k,1.0949,0,6,6,6,1,tegami,Noun,letter (as in mail),051-tegami.mp3,071-moji.mp3,0.3,0,-0.3,0,2.1,0.5,k,,,,,,,,,,,,,,,,,,,,
69305,48,2023-10-27_11h57.41.772,V2_E2,2022.2.5,Win32,30.00750188,106,283,pilot,,,,,k,1.8145,0,7,7,7,1,samui,Adj,cold,021-samui.mp3,001-hayamena.mp3,-0.3,0,0.3,0,0.5,2.1,s,,,,,,,,,,,,,,,,,,,,
69305,48,2023-10-27_11h57.41.772,V2_E2,2022.2.5,Win32,30.00750188,106,283,pilot,,,,,s,0.7526,0,8,8,8,1,nakama,Noun,friend,066-nakama.mp3,072-kotoba.mp3,0.3,0,-0.3,0,2.1,0.5,k,,,,,,,,,,,,,,,,,,,,
69305,48,2023-10-27_11h57.41.772,V2_E2,2022.2.5,Win32,30.00750188,106,283,pilot,,,,,k,2.6344,0,9,9,9,1,pikari,Mim,"with a flash, brightly, dazzlingly",031-pikari.mp3,035-busuri.mp3,-0.3,0,0.3,0,0.5,2.1,s,,,,,,,,,,,,,,,,,,,,
69305,48,2023-10-27_11h57.41.772,V2_E2,2022.2.5,Win32,30.00750188,106,283,pilot,,,,,s,0.4715,0,10,10,10,1,furui,Adj,old,013-furui.mp3,003-mijikana.mp3,-0.3,0,0.3,0,0.5,2.1,s,,,,,,,,,,,,,,,,,,,,
69305,48,2023-10-27_11h57.41.772,V2_E2,2022.2.5,Win32,30.00750188,106,283,pilot,,,,,s,0.4855,0,11,11,11,1,matsuri,Noun,festival,065-matsuri.mp3,067-kuchi.mp3,-0.3,0,0.3,0,0.5,2.1,s,,,,,,,,,,,,,,,,,,,,
69305,48,2023-10-27_11h57.41.772,V2_E2,2022.2.5,Win32,30.00750188,106,283,pilot,,,,,k,1.1599,0,12,12,12,1,kotori,Mim,sound of something little falling or moving,036-kotori.mp3,040-kebakeba.mp3,-0.3,0,0.3,0,0.5,2.1,s,,,,,,,,,,,,,,,,,,,,
69305,48,2023-10-27_11h57.41.772,V2_E2,2022.2.5,Win32,30.00750188,106,283,pilot,,,,,s,1.4416,0,13,13,13,1,buwabuwa,Mim,spongy,032-buwabuwa.mp3,049-gatan.mp3,-0.3,0,0.3,0,0.5,2.1,s,,,,,,,,,,,,,,,,,,,,
69305,48,2023-10-27_11h57.41.772,V2_E2,2022.2.5,Win32,30.00750188,106,283,pilot,,,,,k,1.0426,0,14,14,14,1,marena,Adj,rare,005-marena.mp3,024-nemui.mp3,-0.3,0,0.3,0,0.5,2.1,s,,,,,,,,,,,,,,,,,,,,
69305,48,2023-10-27_11h57.41.772,V2_E2,2022.2.5,Win32,30.00750188,106,283,pilot,,,,,s,0.6608,0,15,15,15,1,yuku,Verb,to go,077-yuku.mp3,086-nukeru.mp3,-0.3,0,0.3,0,0.5,2.1,s,,,,,,,,,,,,,,,,,,,,
69305,48,2023-10-27_11h57.41.772,V2_E2,2022.2.5,Win32,30.00750188,106,283,pilot,,,,,k,1.3515,0,16,16,16,1,Right,AttentionCheck,to trust,Check_Right.mp3,silence.mp3,0.3,0,-0.3,0,0.5,10,k,,,,,,,,,,,,,,,,,,,,
69305,48,2023-10-27_11h57.41.772,V2_E2,2022.2.5,Win32,30.00750188,106,283,pilot,,,,,s,0.8838,0,17,17,17,1,shiraberu,Verb,to look up,089-shiraberu.mp3,084-hajimeru.mp3,-0.3,0,0.3,0,0.5,2.1,s,,,,,,,,,,,,,,,,,,,,
69305,48,2023-10-27_11h57.41.772,V2_E2,2022.2.5,Win32,30.00750188,106,283,pilot,,,,,s,0.7177,0,18,18,18,1,shinu,Verb,to die,092-shinu.mp3,094-hiku.mp3,-0.3,0,0.3,0,0.5,2.1,s,,,,,,,,,,,,,,,,,,,,
69305,48,2023-10-27_11h57.41.772,V2_E2,2022.2.5,Win32,30.00750188,106,283,pilot,,,,,k,0.5327,0,19,19,19,1,hikari,Noun,light,069-hikari.mp3,064-kotoshi.mp3,-0.3,0,0.3,0,0.5,2.1,s,,,,,,,,,,,,,,,,,,,,
69305,48,2023-10-27_11h57.41.772,V2_E2,2022.2.5,Win32,30.00750188,106,283,pilot,,,,,s,0.5808,0,20,20,20,1,burari,Mim,wander,042-burari.mp3,045-harari.mp3,-0.3,0,0.3,0,0.5,2.1,s,,,,,,,,,,,,,,,,,,,,
69305,48,2023-10-27_11h57.41.772,V2_E2,2022.2.5,Win32,30.00750188,106,283,pilot,,,,,s,0.3189,0,21,21,21,1,yume,Noun,dream,062-yume.mp3,057-sakana.mp3,0.3,0,-0.3,0,2.1,0.5,k,,,,,,,,,,,,,,,,,,,,
69305,48,2023-10-27_11h57.41.772,V2_E2,2022.2.5,Win32,30.00750188,106,283,pilot,,,,,k,0.5975,0,22,22,22,1,katachi,Noun,form,059-katachi.mp3,055-hanashi.mp3,0.3,0,-0.3,0,2.1,0.5,k,,,,,,,,,,,,,,,,,,,,
69305,48,2023-10-27_11h57.41.772,V2_E2,2022.2.5,Win32,30.00750188,106,283,pilot,,,,,k,0.618,0,23,23,23,1,chirochiro,Mim,"flicker of light, trickle of water",041-chirochiro.mp3,038-garan.mp3,-0.3,0,0.3,0,0.5,2.1,s,,,,,,,,,,,,,,,,,,,,
69305,48,2023-10-27_11h57.41.772,V2_E2,2022.2.5,Win32,30.00750188,106,283,pilot,,,,,s,0.9436,0,24,24,24,1,nosori,Mim,sluggishly,027-nosori.mp3,048-wasawasa.mp3,0.3,0,-0.3,0,2.1,0.5,k,,,,,,,,,,,,,,,,,,,,
69305,48,2023-10-27_11h57.41.772,V2_E2,2022.2.5,Win32,30.00750188,106,283,pilot,,,,,s,1.4126,0,25,25,25,1,noru,Verb,to get on,093-noru.mp3,090-tsubuyaku.mp3,-0.3,0,0.3,0,0.5,2.1,s,,,,,,,,,,,,,,,,,,,,
69305,48,2023-10-27_11h57.41.772,V2_E2,2022.2.5,Win32,30.00750188,106,283,pilot,,,,,s,2.1779,0,26,26,26,1,hitotsu,Noun,one,068-hitotsu.mp3,070-haha.mp3,-0.3,0,0.3,0,0.5,2.1,s,,,,,,,,,,,,,,,,,,,,
69305,48,2023-10-27_11h57.41.772,V2_E2,2022.2.5,Win32,30.00750188,106,283,pilot,,,,,k,0.5795,0,27,27,27,1,marui,Adj,round,025-marui.mp3,016-kurai.mp3,-0.3,0,0.3,0,0.5,2.1,s,,,,,,,,,,,,,,,,,,,,
69305,48,2023-10-27_11h57.41.772,V2_E2,2022.2.5,Win32,30.00750188,106,283,pilot,,,,,k,2.2999,0,28,28,28,1,funyafunya,Mim,"soft and limp; or mumbling, talking with food in mouth",050-funyafunya.mp3,047-futsufutsu.mp3,0.3,0,-0.3,0,2.1,0.5,k,,,,,,,,,,,,,,,,,,,,
69305,48,2023-10-27_11h57.41.772,V2_E2,2022.2.5,Win32,30.00750188,106,283,pilot,,,,,k,1.3272,0,29,29,29,1,shiroi,Adj,white,023-shiroi.mp3,008-furina.mp3,0.3,0,-0.3,0,2.1,0.5,k,,,,,,,,,,,,,,,,,,,,
69305,48,2023-10-27_11h57.41.772,V2_E2,2022.2.5,Win32,30.00750188,106,283,pilot,,,,,k,1.3813,0,30,30,30,1,majimena,Adj,serious,010-majimena.mp3,019-hiroi.mp3,-0.3,0,0.3,0,0.5,2.1,s,,,,,,,,,,,,,,,,,,,,
69305,48,2023-10-27_11h57.41.772,V2_E2,2022.2.5,Win32,30.00750188,106,283,pilot,,,,,s,1.4318,0,31,31,31,1,yutakana,Adj,rich,014-yutakana.mp3,002-tegaruna.mp3,0.3,0,-0.3,0,2.1,0.5,k,,,,,,,,,,,,,,,,,,,,
69305,48,2023-10-27_11h57.41.772,V2_E2,2022.2.5,Win32,30.00750188,106,283,pilot,,,,,k,1.1079,0,32,32,32,1,tsuma,Noun,wife,053-tsuma.mp3,061-kagiri.mp3,0.3,0,-0.3,0,2.1,0.5,k,,,,,,,,,,,,,,,,,,,,
69305,48,2023-10-27_11h57.41.772,V2_E2,2022.2.5,Win32,30.00750188,106,283,pilot,,,,,k,1.1854,0,33,33,33,1,jimoto,Noun,local,058-jimoto.mp3,074-hana.mp3,-0.3,0,0.3,0,0.5,2.1,s,,,,,,,,,,,,,,,,,,,,
69305,48,2023-10-27_11h57.41.772,V2_E2,2022.2.5,Win32,30.00750188,106,283,pilot,,,,,s,1.0648,0,34,34,34,1,miseru,Verb,to show,083-miseru.mp3,098-mamoru.mp3,0.3,0,-0.3,0,2.1,0.5,k,,,,,,,,,,,,,,,,,,,,
69305,48,2023-10-27_11h57.41.772,V2_E2,2022.2.5,Win32,30.00750188,106,283,pilot,,,,,k,0.3962,0,35,35,35,1,kitanai,Adj,dirty,012-kitanai.mp3,007-hitoshii.mp3,0.3,0,-0.3,0,2.1,0.5,k,,,,,,,,,,,,,,,,,,,,
69305,48,2023-10-27_11h57.41.772,V2_E2,2022.2.5,Win32,30.00750188,106,283,pilot,,,,,s,0.9629,0,36,36,36,1,kasaneru,Verb,to stack,100-kasaneru.mp3,095-matomeru.mp3,0.3,0,-0.3,0,2.1,0.5,k,,,,,,,,,,,,,,,,,,,,
69305,48,2023-10-27_11h57.41.772,V2_E2,2022.2.5,Win32,30.00750188,106,283,pilot,,,,,s,0.5637,0,37,37,37,1,wasureru,Verb,to forget,085-wasureru.mp3,076-yobu.mp3,0.3,0,-0.3,0,2.1,0.5,k,,,,,,,,,,,,,,,,,,,,
69305,48,2023-10-27_11h57.41.772,V2_E2,2022.2.5,Win32,30.00750188,106,283,pilot,,,,,s,0.7181,0,38,38,38,1,goshagosha,Mim,messy,034-goshagosha.mp3,033-katsukatsu.mp3,-0.3,0,0.3,0,0.5,2.1,s,,,,,,,,,,,,,,,,,,,,
69305,48,2023-10-27_11h57.41.772,V2_E2,2022.2.5,Win32,30.00750188,106,283,pilot,,,,,s,0.6221,0,39,39,39,1,noberu,Verb,to express,078-noberu.mp3,082-machigau.mp3,0.3,0,-0.3,0,2.1,0.5,k,,,,,,,,,,,,,,,,,,,,
69305,48,2023-10-27_11h57.41.772,V2_E2,2022.2.5,Win32,30.00750188,106,283,pilot,,,,,k,0.6325,0,40,40,40,1,kasanaru,Verb,to overlap,087-kasanaru.mp3,091-yomu.mp3,-0.3,0,0.3,0,0.5,2.1,s,,,,,,,,,,,,,,,,,,,,
69305,48,2023-10-27_11h57.41.772,V2_E2,2022.2.5,Win32,30.00750188,106,283,pilot,,,,,k,1.4472,0,41,41,41,1,gusha,Mim,sound of something being squashed,046-gusha.mp3,026-karari.mp3,0.3,0,-0.3,0,2.1,0.5,k,,,,,,,,,,,,,,,,,,,,
69305,48,2023-10-27_11h57.41.772,V2_E2,2022.2.5,Win32,30.00750188,106,283,pilot,,,,,s,1.1846,0,42,42,42,1,kimazui,Adj,awkward,017-kimazui.mp3,006-betsuna.mp3,0.3,0,-0.3,0,2.1,0.5,k,,,,,,,,,,,,,,,,,,,,
69305,48,2023-10-27_11h57.41.772,V2_E2,2022.2.5,Win32,30.00750188,106,283,pilot,,,,,k,1.932,0,43,43,43,1,mukashi,Noun,long time ago,054-mukashi.mp3,056-tochi.mp3,0.3,0,-0.3,0,2.1,0.5,k,,,,,,,,,,,,,,,,,,,,
69305,48,2023-10-27_11h57.41.772,V2_E2,2022.2.5,Win32,30.00750188,106,283,pilot,,,,,k,1.4175,0,44,44,44,1,kako,Noun,past,052-kako.mp3,060-mizu.mp3,-0.3,0,0.3,0,0.5,2.1,s,,,,,,,,,,,,,,,,,,,,
69305,48,2023-10-27_11h57.41.772,V2_E2,2022.2.5,Win32,30.00750188,106,283,pilot,,,,,k,2.1325,0,45,45,45,1,petan,Mim,sound of something making firm contact with a flat surface,043-petan.mp3,044-shobon.mp3,-0.3,0,0.3,0,0.5,2.1,s,,,,,,,,,,,,,,,,,,,,
69305,48,2023-10-27_11h57.41.772,V2_E2,2022.2.5,Win32,30.00750188,106,283,pilot,,,,,k,2.3319,0,46,46,46,1,hiyohiyo,Mim,"moving like a chick, chick-like",028-hiyohiyo.mp3,037-debudebu.mp3,-0.3,0,0.3,0,0.5,2.1,s,,,,,,,,,,,,,,,,,,,,
69305,48,2023-10-27_11h57.41.772,V2_E2,2022.2.5,Win32,30.00750188,106,283,pilot,,,,,s,0.6982,0,47,47,47,1,nigatena,Adj,bad at,009-nigatena.mp3,022-hiratai.mp3,-0.3,0,0.3,0,0.5,2.1,s,,,,,,,,,,,,,,,,,,,,
69305,48,2023-10-27_11h57.41.772,V2_E2,2022.2.5,Win32,30.00750188,106,283,pilot,,,,,s,0.6958,0,48,48,48,1,kusai,Adj,smelly,015-kusai.mp3,011-toboshii.mp3,-0.3,0,0.3,0,0.5,2.1,s,,,,,,,,,,,,,,,,,,,,
69305,48,2023-10-27_11h57.41.772,V2_E2,2022.2.5,Win32,30.00750188,106,283,pilot,,,,,k,0.9517,0,49,49,49,1,namida,Noun,tears,063-namida.mp3,075-hoka.mp3,0.3,0,-0.3,0,2.1,0.5,k,,,,,,,,,,,,,,,,,,,,
69305,48,2023-10-27_11h57.41.772,V2_E2,2022.2.5,Win32,30.00750188,106,283,pilot,,,,,,,,,,,,,,,,,,,,,,,,50,right,2.6303,,,,,,,,,,,,,,,,,
69305,48,2023-10-27_11h57.41.772,V2_E2,2022.2.5,Win32,30.00750188,106,283,pilot,,,,,,,,,,,,,,,,,,,,,,,,,,,F,right,1.7557,,,,,,,,,,,,,,
69305,48,2023-10-27_11h57.41.772,V2_E2,2022.2.5,Win32,30.00750188,106,283,pilot,,,,,,,,,,,,,,,,,,,,,,,,,,,,,,english,right,3.8663,,,,,,,,,,,
69305,48,2023-10-27_11h57.41.772,V2_E2,2022.2.5,Win32,30.00750188,106,283,pilot,,,,,,,,,,,,,,,,,,,,,,,,,,,,,,,,,welsh,right,7.9086,,,,,,,,
69305,48,2023-10-27_11h57.41.772,V2_E2,2022.2.5,Win32,30.00750188,106,283,pilot,,,,,,,,,,,,,,,,,,,,,,,,,,,,,,,,,,,,1,8.4523,right,1.7462,,,,
69305,48,2023-10-27_11h57.41.772,V2_E2,2022.2.5,Win32,30.00750188,106,283,pilot,,,,,,,,,,,,,,,,,,,,,,,,,,,,,,,,,,,,,,,,1,2.4232,right,0.7826
﻿session,group,date,expName,psychopyVersion,OS,frameRate,participant,expt,status,key_resp_2.keys,key_resp_2.rt,key_resp_6.keys,key_resp_6.rt,key_resp_3.keys,key_resp_3.rt,trials.thisRepN,trials.thisTrialN,trials.thisN,trials.thisIndex,trials.ran,Word,WordClass,Definition,Target,Foil,TargetPositionX,TargetPositionY,FoilPositionX,FoilPositionY,TargetTime,FoilTime,CorrectKey,textbox.text,enter.keys,enter.rt,textbox_2.text,enter_2.keys,enter_2.rt,textbox_3.text,enter_3.keys,enter_3.rt,textbox_4.text,enter_4.keys,enter_4.rt,slider.response,slider.rt,key_resp_4.keys,key_resp_4.rt,slider_2.response,slider_2.rt,key_resp_5.keys,key_resp_5.rt
69306,45,2023-10-27_11h57.58.113,V2_E2,2022.2.5,Win32,60.75703263,107,283,pilot,,,,,,,,,,,,,,,,,,,,,,,,,,,,,,,,,,,,,,,,,,,
69306,45,2023-10-27_11h57.58.113,V2_E2,2022.2.5,Win32,60.75703263,107,283,pilot,s,21.6894,,,,,,,,,,,,,,,,,,,,,,,,,,,,,,,,,,,,,,,,,
69306,45,2023-10-27_11h57.58.113,V2_E2,2022.2.5,Win32,60.75703263,107,283,pilot,,,s,5.3982,,,,,,,,,,,,,,,,,,,,,,,,,,,,,,,,,,,,,,,
69306,45,2023-10-27_11h57.58.113,V2_E2,2022.2.5,Win32,60.75703263,107,283,pilot,,,,,s,2.1888,0,0,0,0,1,Left,AttentionCheck,to compare,Check_Left.mp3,silence.mp3,-0.3,0,0.3,0,0.5,10,s,,,,,,,,,,,,,,,,,,,,
69306,45,2023-10-27_11h57.58.113,V2_E2,2022.2.5,Win32,60.75703263,107,283,pilot,,,,,k,3.1492,0,1,1,1,1,hiroi,Adj,wide,019-hiroi.mp3,003-mijikana.mp3,0.3,0,-0.3,0,2.1,0.5,k,,,,,,,,,,,,,,,,,,,,
69306,45,2023-10-27_11h57.58.113,V2_E2,2022.2.5,Win32,60.75703263,107,283,pilot,,,,,k,5.6975,0,2,2,2,1,Right,AttentionCheck,to trust,Check_Right.mp3,silence.mp3,0.3,0,-0.3,0,0.5,10,k,,,,,,,,,,,,,,,,,,,,
69306,45,2023-10-27_11h57.58.113,V2_E2,2022.2.5,Win32,60.75703263,107,283,pilot,,,,,k,1.8239,0,3,3,3,1,nosori,Mim,sluggishly,027-nosori.mp3,041-chirochiro.mp3,0.3,0,-0.3,0,2.1,0.5,k,,,,,,,,,,,,,,,,,,,,
69306,45,2023-10-27_11h57.58.113,V2_E2,2022.2.5,Win32,60.75703263,107,283,pilot,,,,,s,2.9806,0,4,4,4,1,wasureru,Verb,to forget,085-wasureru.mp3,095-matomeru.mp3,-0.3,0,0.3,0,0.5,2.1,s,,,,,,,,,,,,,,,,,,,,
69306,45,2023-10-27_11h57.58.113,V2_E2,2022.2.5,Win32,60.75703263,107,283,pilot,,,,,k,4.0506,0,5,5,5,1,gusha,Mim,sound of something being squashed,046-gusha.mp3,045-harari.mp3,0.3,0,-0.3,0,2.1,0.5,k,,,,,,,,,,,,,,,,,,,,
69306,45,2023-10-27_11h57.58.113,V2_E2,2022.2.5,Win32,60.75703263,107,283,pilot,,,,,s,1.9875,0,6,6,6,1,kimazui,Adj,awkward,017-kimazui.mp3,008-furina.mp3,0.3,0,-0.3,0,2.1,0.5,k,,,,,,,,,,,,,,,,,,,,
69306,45,2023-10-27_11h57.58.113,V2_E2,2022.2.5,Win32,60.75703263,107,283,pilot,,,,,k,2.4836,0,7,7,7,1,mizu,Noun,water,060-mizu.mp3,071-moji.mp3,-0.3,0,0.3,0,0.5,2.1,s,,,,,,,,,,,,,,,,,,,,
69306,45,2023-10-27_11h57.58.113,V2_E2,2022.2.5,Win32,60.75703263,107,283,pilot,,,,,s,1.3507,0,8,8,8,1,yume,Noun,dream,062-yume.mp3,069-hikari.mp3,0.3,0,-0.3,0,2.1,0.5,k,,,,,,,,,,,,,,,,,,,,
69306,45,2023-10-27_11h57.58.113,V2_E2,2022.2.5,Win32,60.75703263,107,283,pilot,,,,,k,2.2843,0,9,9,9,1,mitsumeru,Verb,to stare,088-mitsumeru.mp3,083-miseru.mp3,0.3,0,-0.3,0,2.1,0.5,k,,,,,,,,,,,,,,,,,,,,
69306,45,2023-10-27_11h57.58.113,V2_E2,2022.2.5,Win32,60.75703263,107,283,pilot,,,,,k,2.7816,0,10,10,10,1,hana,Noun,flower,074-hana.mp3,052-kako.mp3,0.3,0,-0.3,0,2.1,0.5,k,,,,,,,,,,,,,,,,,,,,
69306,45,2023-10-27_11h57.58.113,V2_E2,2022.2.5,Win32,60.75703263,107,283,pilot,,,,,s,2.2357,0,11,11,11,1,debudebu,Mim,fat,037-debudebu.mp3,030-pekon.mp3,-0.3,0,0.3,0,0.5,2.1,s,,,,,,,,,,,,,,,,,,,,
69306,45,2023-10-27_11h57.58.113,V2_E2,2022.2.5,Win32,60.75703263,107,283,pilot,,,,,k,1.835,0,12,12,12,1,nigatena,Adj,bad at,009-nigatena.mp3,013-furui.mp3,-0.3,0,0.3,0,0.5,2.1,s,,,,,,,,,,,,,,,,,,,,
69306,45,2023-10-27_11h57.58.113,V2_E2,2022.2.5,Win32,60.75703263,107,283,pilot,,,,,k,1.5307,0,13,13,13,1,yuku,Verb,to go,077-yuku.mp3,093-noru.mp3,0.3,0,-0.3,0,2.1,0.5,k,,,,,,,,,,,,,,,,,,,,
69306,45,2023-10-27_11h57.58.113,V2_E2,2022.2.5,Win32,60.75703263,107,283,pilot,,,,,k,3.3166,0,14,14,14,1,petan,Mim,sound of something making firm contact with a flat surface,043-petan.mp3,035-busuri.mp3,0.3,0,-0.3,0,2.1,0.5,k,,,,,,,,,,,,,,,,,,,,
69306,45,2023-10-27_11h57.58.113,V2_E2,2022.2.5,Win32,60.75703263,107,283,pilot,,,,,k,1.4321,0,15,15,15,1,tobu,Verb,to jump,099-tobu.mp3,091-yomu.mp3,0.3,0,-0.3,0,2.1,0.5,k,,,,,,,,,,,,,,,,,,,,
69306,45,2023-10-27_11h57.58.113,V2_E2,2022.2.5,Win32,60.75703263,107,283,pilot,,,,,s,2.5755,0,16,16,16,1,haha,Noun,mother,070-haha.mp3,057-sakana.mp3,-0.3,0,0.3,0,0.5,2.1,s,,,,,,,,,,,,,,,,,,,,
69306,45,2023-10-27_11h57.58.113,V2_E2,2022.2.5,Win32,60.75703263,107,283,pilot,,,,,k,3.9843,0,17,17,17,1,funyafunya,Mim,"soft and limp; or mumbling, talking with food in mouth",050-funyafunya.mp3,047-futsufutsu.mp3,0.3,0,-0.3,0,2.1,0.5,k,,,,,,,,,,,,,,,,,,,,
69306,45,2023-10-27_11h57.58.113,V2_E2,2022.2.5,Win32,60.75703263,107,283,pilot,,,,,k,1.9662,0,18,18,18,1,shiroi,Adj,white,023-shiroi.mp3,016-kurai.mp3,0.3,0,-0.3,0,2.1,0.5,k,,,,,,,,,,,,,,,,,,,,
69306,45,2023-10-27_11h57.58.113,V2_E2,2022.2.5,Win32,60.75703263,107,283,pilot,,,,,s,1.4143,0,19,19,19,1,matsuri,Noun,festival,065-matsuri.mp3,054-mukashi.mp3,0.3,0,-0.3,0,2.1,0.5,k,,,,,,,,,,,,,,,,,,,,
69306,45,2023-10-27_11h57.58.113,V2_E2,2022.2.5,Win32,60.75703263,107,283,pilot,,,,,k,0.8606,0,20,20,20,1,noberu,Verb,to express,078-noberu.mp3,079-fukameru.mp3,-0.3,0,0.3,0,0.5,2.1,s,,,,,,,,,,,,,,,,,,,,
69306,45,2023-10-27_11h57.58.113,V2_E2,2022.2.5,Win32,60.75703263,107,283,pilot,,,,,s,1.1006,0,21,21,21,1,kagiri,Noun,limit,061-kagiri.mp3,064-kotoshi.mp3,-0.3,0,0.3,0,0.5,2.1,s,,,,,,,,,,,,,,,,,,,,
69306,45,2023-10-27_11h57.58.113,V2_E2,2022.2.5,Win32,60.75703263,107,283,pilot,,,,,k,0.7502,0,22,22,22,1,takumina,Adj,skillful,004-takumina.mp3,024-nemui.mp3,0.3,0,-0.3,0,2.1,0.5,k,,,,,,,,,,,,,,,,,,,,
69306,45,2023-10-27_11h57.58.113,V2_E2,2022.2.5,Win32,60.75703263,107,283,pilot,,,,,k,1.1678,0,23,23,23,1,kotoba,Noun,word,072-kotoba.mp3,075-hoka.mp3,0.3,0,-0.3,0,2.1,0.5,k,,,,,,,,,,,,,,,,,,,,
69306,45,2023-10-27_11h57.58.113,V2_E2,2022.2.5,Win32,60.75703263,107,283,pilot,,,,,s,2.6499,0,24,24,24,1,kuchi,Noun,mouth,067-kuchi.mp3,058-jimoto.mp3,0.3,0,-0.3,0,2.1,0.5,k,,,,,,,,,,,,,,,,,,,,
69306,45,2023-10-27_11h57.58.113,V2_E2,2022.2.5,Win32,60.75703263,107,283,pilot,,,,,k,1.601,0,25,25,25,1,toboshii,Adj,poor,011-toboshii.mp3,006-betsuna.mp3,-0.3,0,0.3,0,0.5,2.1,s,,,,,,,,,,,,,,,,,,,,
69306,45,2023-10-27_11h57.58.113,V2_E2,2022.2.5,Win32,60.75703263,107,283,pilot,,,,,k,1.7828,0,26,26,26,1,naritatsu,Verb,to consist,081-naritatsu.mp3,080-tomonau.mp3,-0.3,0,0.3,0,0.5,2.1,s,,,,,,,,,,,,,,,,,,,,
69306,45,2023-10-27_11h57.58.113,V2_E2,2022.2.5,Win32,60.75703263,107,283,pilot,,,,,s,1.0666,0,27,27,27,1,hiku,Verb,to pull,094-hiku.mp3,096-sadameru.mp3,-0.3,0,0.3,0,0.5,2.1,s,,,,,,,,,,,,,,,,,,,,
69306,45,2023-10-27_11h57.58.113,V2_E2,2022.2.5,Win32,60.75703263,107,283,pilot,,,,,k,1.0999,0,28,28,28,1,yutakana,Adj,rich,014-yutakana.mp3,021-samui.mp3,-0.3,0,0.3,0,0.5,2.1,s,,,,,,,,,,,,,,,,,,,,
69306,45,2023-10-27_11h57.58.113,V2_E2,2022.2.5,Win32,60.75703263,107,283,pilot,,,,,s,1.2384,0,29,29,29,1,shinu,Verb,to die,092-shinu.mp3,097-hirogeru.mp3,0.3,0,-0.3,0,2.1,0.5,k,,,,,,,,,,,,,,,,,,,,
69306,45,2023-10-27_11h57.58.113,V2_E2,2022.2.5,Win32,60.75703263,107,283,pilot,,,,,k,0.884,0,30,30,30,1,marui,Adj,round,025-marui.mp3,010-majimena.mp3,0.3,0,-0.3,0,2.1,0.5,k,,,,,,,,,,,,,,,,,,,,
69306,45,2023-10-27_11h57.58.113,V2_E2,2022.2.5,Win32,60.75703263,107,283,pilot,,,,,s,1.2995,0,31,31,31,1,kitanai,Adj,dirty,012-kitanai.mp3,002-tegaruna.mp3,-0.3,0,0.3,0,0.5,2.1,s,,,,,,,,,,,,,,,,,,,,
69306,45,2023-10-27_11h57.58.113,V2_E2,2022.2.5,Win32,60.75703263,107,283,pilot,,,,,k,1.0492,0,32,32,32,1,tochi,Noun,land,056-tochi.mp3,059-katachi.mp3,-0.3,0,0.3,0,0.5,2.1,s,,,,,,,,,,,,,,,,,,,,
69306,45,2023-10-27_11h57.58.113,V2_E2,2022.2.5,Win32,60.75703263,107,283,pilot,,,,,k,1.3003,0,33,33,33,1,karari,Mim,dry,026-karari.mp3,032-buwabuwa.mp3,0.3,0,-0.3,0,2.1,0.5,k,,,,,,,,,,,,,,,,,,,,
69306,45,2023-10-27_11h57.58.113,V2_E2,2022.2.5,Win32,60.75703263,107,283,pilot,,,,,s,1.0001,0,34,34,34,1,kasanaru,Verb,to overlap,087-kasanaru.mp3,100-kasaneru.mp3,-0.3,0,0.3,0,0.5,2.1,s,,,,,,,,,,,,,,,,,,,,
69306,45,2023-10-27_11h57.58.113,V2_E2,2022.2.5,Win32,60.75703263,107,283,pilot,,,,,k,0.9489,0,35,35,35,1,tsuratsura,Mim,spontaneously,029-tsuratsura.mp3,039-gakun.mp3,0.3,0,-0.3,0,2.1,0.5,k,,,,,,,,,,,,,,,,,,,,
69306,45,2023-10-27_11h57.58.113,V2_E2,2022.2.5,Win32,60.75703263,107,283,pilot,,,,,k,1.5318,0,36,36,36,1,tegami,Noun,letter (as in mail),051-tegami.mp3,055-hanashi.mp3,-0.3,0,0.3,0,0.5,2.1,s,,,,,,,,,,,,,,,,,,,,
69306,45,2023-10-27_11h57.58.113,V2_E2,2022.2.5,Win32,60.75703263,107,283,pilot,,,,,k,0.8851,0,37,37,37,1,tsuma,Noun,wife,053-tsuma.mp3,068-hitotsu.mp3,0.3,0,-0.3,0,2.1,0.5,k,,,,,,,,,,,,,,,,,,,,
69306,45,2023-10-27_11h57.58.113,V2_E2,2022.2.5,Win32,60.75703263,107,283,pilot,,,,,k,2.3655,0,38,38,38,1,kotori,Mim,sound of something little falling or moving,036-kotori.mp3,049-gatan.mp3,0.3,0,-0.3,0,2.1,0.5,k,,,,,,,,,,,,,,,,,,,,
69306,45,2023-10-27_11h57.58.113,V2_E2,2022.2.5,Win32,60.75703263,107,283,pilot,,,,,k,2.5597,0,39,39,39,1,tsubuyaku,Verb,to speak to oneself in a quiet voice,090-tsubuyaku.mp3,089-shiraberu.mp3,-0.3,0,0.3,0,0.5,2.1,s,,,,,,,,,,,,,,,,,,,,
69306,45,2023-10-27_11h57.58.113,V2_E2,2022.2.5,Win32,60.75703263,107,283,pilot,,,,,s,1.8162,0,40,40,40,1,burari,Mim,wander,042-burari.mp3,040-kebakeba.mp3,-0.3,0,0.3,0,0.5,2.1,s,,,,,,,,,,,,,,,,,,,,
69306,45,2023-10-27_11h57.58.113,V2_E2,2022.2.5,Win32,60.75703263,107,283,pilot,,,,,s,1.7166,0,41,41,41,1,kusai,Adj,smelly,015-kusai.mp3,005-marena.mp3,-0.3,0,0.3,0,0.5,2.1,s,,,,,,,,,,,,,,,,,,,,
69306,45,2023-10-27_11h57.58.113,V2_E2,2022.2.5,Win32,60.75703263,107,283,pilot,,,,,k,0.9518,0,42,42,42,1,machigau,Verb,to wrong,082-machigau.mp3,076-yobu.mp3,0.3,0,-0.3,0,2.1,0.5,k,,,,,,,,,,,,,,,,,,,,
69306,45,2023-10-27_11h57.58.113,V2_E2,2022.2.5,Win32,60.75703263,107,283,pilot,,,,,k,1.0556,0,43,43,43,1,hiratai,Adj,flat,022-hiratai.mp3,020-kiyoi.mp3,-0.3,0,0.3,0,0.5,2.1,s,,,,,,,,,,,,,,,,,,,,
69306,45,2023-10-27_11h57.58.113,V2_E2,2022.2.5,Win32,60.75703263,107,283,pilot,,,,,s,1.1496,0,44,44,44,1,wasawasa,Mim,restless,048-wasawasa.mp3,038-garan.mp3,-0.3,0,0.3,0,0.5,2.1,s,,,,,,,,,,,,,,,,,,,,
69306,45,2023-10-27_11h57.58.113,V2_E2,2022.2.5,Win32,60.75703263,107,283,pilot,,,,,k,0.8343,0,45,45,45,1,goshagosha,Mim,messy,034-goshagosha.mp3,033-katsukatsu.mp3,0.3,0,-0.3,0,2.1,0.5,k,,,,,,,,,,,,,,,,,,,,
69306,45,2023-10-27_11h57.58.113,V2_E2,2022.2.5,Win32,60.75703263,107,283,pilot,,,,,k,2.2662,0,46,46,46,1,shobon,Mim,"downheartedly, dejectedly",044-shobon.mp3,031-pikari.mp3,-0.3,0,0.3,0,0.5,2.1,s,,,,,,,,,,,,,,,,,,,,
69306,45,2023-10-27_11h57.58.113,V2_E2,2022.2.5,Win32,60.75703263,107,283,pilot,,,,,k,1.0995,0,47,47,47,1,chikaku,Noun,vicinity,073-chikaku.mp3,066-nakama.mp3,0.3,0,-0.3,0,2.1,0.5,k,,,,,,,,,,,,,,,,,,,,
69306,45,2023-10-27_11h57.58.113,V2_E2,2022.2.5,Win32,60.75703263,107,283,pilot,,,,,s,0.7682,0,48,48,48,1,hayamena,Adj,early,001-hayamena.mp3,007-hitoshii.mp3,-0.3,0,0.3,0,0.5,2.1,s,,,,,,,,,,,,,,,,,,,,
69306,45,2023-10-27_11h57.58.113,V2_E2,2022.2.5,Win32,60.75703263,107,283,pilot,,,,,s,1.216,0,49,49,49,1,mamoru,Verb,to protect,098-mamoru.mp3,084-hajimeru.mp3,0.3,0,-0.3,0,2.1,0.5,k,,,,,,,,,,,,,,,,,,,,
69306,45,2023-10-27_11h57.58.113,V2_E2,2022.2.5,Win32,60.75703263,107,283,pilot,,,,,,,,,,,,,,,,,,,,,,,,62,right,3.0472,,,,,,,,,,,,,,,,,
69306,45,2023-10-27_11h57.58.113,V2_E2,2022.2.5,Win32,60.75703263,107,283,pilot,,,,,,,,,,,,,,,,,,,,,,,,,,,female,right,5.582,,,,,,,,,,,,,,
69306,45,2023-10-27_11h57.58.113,V2_E2,2022.2.5,Win32,60.75703263,107,283,pilot,,,,,,,,,,,,,,,,,,,,,,,,,,,,,,english,right,2.8663,,,,,,,,,,,
69306,45,2023-10-27_11h57.58.113,V2_E2,2022.2.5,Win32,60.75703263,107,283,pilot,,,,,,,,,,,,,,,,,,,,,,,,,,,,,,,,,none,right,5.3324,,,,,,,,
69306,45,2023-10-27_11h57.58.113,V2_E2,2022.2.5,Win32,60.75703263,107,283,pilot,,,,,,,,,,,,,,,,,,,,,,,,,,,,,,,,,,,,1,6.1464,right,2.1848,,,,
69306,45,2023-10-27_11h57.58.113,V2_E2,2022.2.5,Win32,60.75703263,107,283,pilot,,,,,,,,,,,,,,,,,,,,,,,,,,,,,,,,,,,,,,,,1,6.1015,right,1.0495
﻿session,group,date,expName,psychopyVersion,OS,frameRate,participant,expt,status,key_resp_2.keys,key_resp_2.rt,key_resp_6.keys,key_resp_6.rt,key_resp_3.keys,key_resp_3.rt,trials.thisRepN,trials.thisTrialN,trials.thisN,trials.thisIndex,trials.ran,Word,WordClass,Definition,Target,Foil,TargetPositionX,TargetPositionY,FoilPositionX,FoilPositionY,TargetTime,FoilTime,CorrectKey,textbox.text,enter.keys,enter.rt,textbox_2.text,enter_2.keys,enter_2.rt,textbox_3.text,enter_3.keys,enter_3.rt,textbox_4.text,enter_4.keys,enter_4.rt,slider.response,slider.rt,key_resp_4.keys,key_resp_4.rt,slider_2.response,slider_2.rt,key_resp_5.keys,key_resp_5.rt
69307,104,2023-10-27_11h57.58.453,V2_E2,2022.2.5,Win32,59.99160118,108,283,pilot,,,,,,,,,,,,,,,,,,,,,,,,,,,,,,,,,,,,,,,,,,,
69307,104,2023-10-27_11h57.58.453,V2_E2,2022.2.5,Win32,59.99160118,108,283,pilot,s,20.3672,,,,,,,,,,,,,,,,,,,,,,,,,,,,,,,,,,,,,,,,,
69307,104,2023-10-27_11h57.58.453,V2_E2,2022.2.5,Win32,59.99160118,108,283,pilot,,,s,9.4328,,,,,,,,,,,,,,,,,,,,,,,,,,,,,,,,,,,,,,,
69307,104,2023-10-27_11h57.58.453,V2_E2,2022.2.5,Win32,59.99160118,108,283,pilot,,,,,s,13.9624,0,0,0,0,1,Left,AttentionCheck,to compare,Check_Left.mp3,silence.mp3,-0.3,0,0.3,0,0.5,10,s,,,,,,,,,,,,,,,,,,,,
69307,104,2023-10-27_11h57.58.453,V2_E2,2022.2.5,Win32,59.99160118,108,283,pilot,,,,,s,2.7164,0,1,1,1,1,sadameru,Verb,to define,096-sadameru.mp3,083-miseru.mp3,0.3,0,-0.3,0,2.1,0.5,k,,,,,,,,,,,,,,,,,,,,
69307,104,2023-10-27_11h57.58.453,V2_E2,2022.2.5,Win32,59.99160118,108,283,pilot,,,,,k,1.9504,0,2,2,2,1,kotoshi,Noun,this year,064-kotoshi.mp3,071-moji.mp3,0.3,0,-0.3,0,2.1,0.5,k,,,,,,,,,,,,,,,,,,,,
69307,104,2023-10-27_11h57.58.453,V2_E2,2022.2.5,Win32,59.99160118,108,283,pilot,,,,,k,2.1526,0,3,3,3,1,tegaruna,Adj,simple,002-tegaruna.mp3,003-mijikana.mp3,-0.3,0,0.3,0,0.5,2.1,s,,,,,,,,,,,,,,,,,,,,
69307,104,2023-10-27_11h57.58.453,V2_E2,2022.2.5,Win32,59.99160118,108,283,pilot,,,,,k,0.5168,0,4,4,4,1,kiyoi,Adj,pure,020-kiyoi.mp3,023-shiroi.mp3,0.3,0,-0.3,0,2.1,0.5,k,,,,,,,,,,,,,,,,,,,,
69307,104,2023-10-27_11h57.58.453,V2_E2,2022.2.5,Win32,59.99160118,108,283,pilot,,,,,s,1.6841,0,5,5,5,1,hiku,Verb,to pull,094-hiku.mp3,077-yuku.mp3,0.3,0,-0.3,0,2.1,0.5,k,,,,,,,,,,,,,,,,,,,,
69307,104,2023-10-27_11h57.58.453,V2_E2,2022.2.5,Win32,59.99160118,108,283,pilot,,,,,k,2.4578,0,6,6,6,1,kasaneru,Verb,to stack,100-kasaneru.mp3,078-noberu.mp3,0.3,0,-0.3,0,2.1,0.5,k,,,,,,,,,,,,,,,,,,,,
69307,104,2023-10-27_11h57.58.453,V2_E2,2022.2.5,Win32,59.99160118,108,283,pilot,,,,,s,1.0859,0,7,7,7,1,hajimeru,Verb,to start,084-hajimeru.mp3,080-tomonau.mp3,-0.3,0,0.3,0,0.5,2.1,s,,,,,,,,,,,,,,,,,,,,
69307,104,2023-10-27_11h57.58.453,V2_E2,2022.2.5,Win32,59.99160118,108,283,pilot,,,,,s,2.3524,0,8,8,8,1,hirogeru,Verb,to spread,097-hirogeru.mp3,079-fukameru.mp3,0.3,0,-0.3,0,2.1,0.5,k,,,,,,,,,,,,,,,,,,,,
69307,104,2023-10-27_11h57.58.453,V2_E2,2022.2.5,Win32,59.99160118,108,283,pilot,,,,,k,2.3669,0,9,9,9,1,hiyohiyo,Mim,"moving like a chick, chick-like",028-hiyohiyo.mp3,049-gatan.mp3,0.3,0,-0.3,0,2.1,0.5,k,,,,,,,,,,,,,,,,,,,,
69307,104,2023-10-27_11h57.58.453,V2_E2,2022.2.5,Win32,59.99160118,108,283,pilot,,,,,k,1.7574,0,10,10,10,1,hanashi,Noun,conversation,055-hanashi.mp3,062-yume.mp3,-0.3,0,0.3,0,0.5,2.1,s,,,,,,,,,,,,,,,,,,,,
69307,104,2023-10-27_11h57.58.453,V2_E2,2022.2.5,Win32,59.99160118,108,283,pilot,,,,,k,2.2553,0,11,11,11,1,gusha,Mim,sound of something being squashed,046-gusha.mp3,036-kotori.mp3,0.3,0,-0.3,0,2.1,0.5,k,,,,,,,,,,,,,,,,,,,,
69307,104,2023-10-27_11h57.58.453,V2_E2,2022.2.5,Win32,59.99160118,108,283,pilot,,,,,k,1.9254,0,12,12,12,1,tegami,Noun,letter (as in mail),051-tegami.mp3,072-kotoba.mp3,-0.3,0,0.3,0,0.5,2.1,s,,,,,,,,,,,,,,,,,,,,
69307,104,2023-10-27_11h57.58.453,V2_E2,2022.2.5,Win32,59.99160118,108,283,pilot,,,,,s,1.2667,0,13,13,13,1,nigatena,Adj,bad at,009-nigatena.mp3,004-takumina.mp3,0.3,0,-0.3,0,2.1,0.5,k,,,,,,,,,,,,,,,,,,,,
69307,104,2023-10-27_11h57.58.453,V2_E2,2022.2.5,Win32,59.99160118,108,283,pilot,,,,,k,0.9999,0,14,14,14,1,pekon,Mim,bowing lightly and casually,030-pekon.mp3,044-shobon.mp3,0.3,0,-0.3,0,2.1,0.5,k,,,,,,,,,,,,,,,,,,,,
69307,104,2023-10-27_11h57.58.453,V2_E2,2022.2.5,Win32,59.99160118,108,283,pilot,,,,,s,1.1847,0,15,15,15,1,mitsumeru,Verb,to stare,088-mitsumeru.mp3,092-shinu.mp3,0.3,0,-0.3,0,2.1,0.5,k,,,,,,,,,,,,,,,,,,,,
69307,104,2023-10-27_11h57.58.453,V2_E2,2022.2.5,Win32,59.99160118,108,283,pilot,,,,,k,0.5446,0,16,16,16,1,sakana,Noun,fish,057-sakana.mp3,067-kuchi.mp3,-0.3,0,0.3,0,0.5,2.1,s,,,,,,,,,,,,,,,,,,,,
69307,104,2023-10-27_11h57.58.453,V2_E2,2022.2.5,Win32,59.99160118,108,283,pilot,,,,,s,0.3922,0,17,17,17,1,katachi,Noun,form,059-katachi.mp3,070-haha.mp3,-0.3,0,0.3,0,0.5,2.1,s,,,,,,,,,,,,,,,,,,,,
69307,104,2023-10-27_11h57.58.453,V2_E2,2022.2.5,Win32,59.99160118,108,283,pilot,,,,,s,1.2627,0,18,18,18,1,buwabuwa,Mim,spongy,032-buwabuwa.mp3,040-kebakeba.mp3,0.3,0,-0.3,0,2.1,0.5,k,,,,,,,,,,,,,,,,,,,,
69307,104,2023-10-27_11h57.58.453,V2_E2,2022.2.5,Win32,59.99160118,108,283,pilot,,,,,s,1.3651,0,19,19,19,1,hiratai,Adj,flat,022-hiratai.mp3,016-kurai.mp3,0.3,0,-0.3,0,2.1,0.5,k,,,,,,,,,,,,,,,,,,,,
69307,104,2023-10-27_11h57.58.453,V2_E2,2022.2.5,Win32,59.99160118,108,283,pilot,,,,,s,0.6751,0,20,20,20,1,chikaku,Noun,vicinity,073-chikaku.mp3,065-matsuri.mp3,-0.3,0,0.3,0,0.5,2.1,s,,,,,,,,,,,,,,,,,,,,
69307,104,2023-10-27_11h57.58.453,V2_E2,2022.2.5,Win32,59.99160118,108,283,pilot,,,,,s,0.3981,0,21,21,21,1,mukashi,Noun,long time ago,054-mukashi.mp3,074-hana.mp3,0.3,0,-0.3,0,2.1,0.5,k,,,,,,,,,,,,,,,,,,,,
69307,104,2023-10-27_11h57.58.453,V2_E2,2022.2.5,Win32,59.99160118,108,283,pilot,,,,,k,2.1614,0,22,22,22,1,kasanaru,Verb,to overlap,087-kasanaru.mp3,099-tobu.mp3,0.3,0,-0.3,0,2.1,0.5,k,,,,,,,,,,,,,,,,,,,,
69307,104,2023-10-27_11h57.58.453,V2_E2,2022.2.5,Win32,59.99160118,108,283,pilot,,,,,k,1.1241,0,23,23,23,1,pikari,Mim,"with a flash, brightly, dazzlingly",031-pikari.mp3,048-wasawasa.mp3,0.3,0,-0.3,0,2.1,0.5,k,,,,,,,,,,,,,,,,,,,,
69307,104,2023-10-27_11h57.58.453,V2_E2,2022.2.5,Win32,59.99160118,108,283,pilot,,,,,k,0.9602,0,24,24,24,1,kako,Noun,past,052-kako.mp3,075-hoka.mp3,-0.3,0,0.3,0,0.5,2.1,s,,,,,,,,,,,,,,,,,,,,
69307,104,2023-10-27_11h57.58.453,V2_E2,2022.2.5,Win32,59.99160118,108,283,pilot,,,,,k,0.7407,0,25,25,25,1,kusai,Adj,smelly,015-kusai.mp3,007-hitoshii.mp3,-0.3,0,0.3,0,0.5,2.1,s,,,,,,,,,,,,,,,,,,,,
69307,104,2023-10-27_11h57.58.453,V2_E2,2022.2.5,Win32,59.99160118,108,283,pilot,,,,,s,1.1491,0,26,26,26,1,nosori,Mim,sluggishly,027-nosori.mp3,045-harari.mp3,0.3,0,-0.3,0,2.1,0.5,k,,,,,,,,,,,,,,,,,,,,
69307,104,2023-10-27_11h57.58.453,V2_E2,2022.2.5,Win32,59.99160118,108,283,pilot,,,,,s,1.6284,0,27,27,27,1,marena,Adj,rare,005-marena.mp3,024-nemui.mp3,-0.3,0,0.3,0,0.5,2.1,s,,,,,,,,,,,,,,,,,,,,
69307,104,2023-10-27_11h57.58.453,V2_E2,2022.2.5,Win32,59.99160118,108,283,pilot,,,,,s,1.0352,0,28,28,28,1,garan,Mim,empty,038-garan.mp3,033-katsukatsu.mp3,-0.3,0,0.3,0,0.5,2.1,s,,,,,,,,,,,,,,,,,,,,
69307,104,2023-10-27_11h57.58.453,V2_E2,2022.2.5,Win32,59.99160118,108,283,pilot,,,,,k,1.0762,0,29,29,29,1,debudebu,Mim,fat,037-debudebu.mp3,050-funyafunya.mp3,-0.3,0,0.3,0,0.5,2.1,s,,,,,,,,,,,,,,,,,,,,
69307,104,2023-10-27_11h57.58.453,V2_E2,2022.2.5,Win32,59.99160118,108,283,pilot,,,,,k,4.2821,0,30,30,30,1,kitanai,Adj,dirty,012-kitanai.mp3,014-yutakana.mp3,-0.3,0,0.3,0,0.5,2.1,s,,,,,,,,,,,,,,,,,,,,
69307,104,2023-10-27_11h57.58.453,V2_E2,2022.2.5,Win32,59.99160118,108,283,pilot,,,,,s,1.002,0,31,31,31,1,jimoto,Noun,local,058-jimoto.mp3,069-hikari.mp3,-0.3,0,0.3,0,0.5,2.1,s,,,,,,,,,,,,,,,,,,,,
69307,104,2023-10-27_11h57.58.453,V2_E2,2022.2.5,Win32,59.99160118,108,283,pilot,,,,,k,2.192,0,32,32,32,1,majimena,Adj,serious,010-majimena.mp3,013-furui.mp3,-0.3,0,0.3,0,0.5,2.1,s,,,,,,,,,,,,,,,,,,,,
69307,104,2023-10-27_11h57.58.453,V2_E2,2022.2.5,Win32,59.99160118,108,283,pilot,,,,,s,1.3235,0,33,33,33,1,gakun,Mim,dropping one's head or shoulders,039-gakun.mp3,047-futsufutsu.mp3,-0.3,0,0.3,0,0.5,2.1,s,,,,,,,,,,,,,,,,,,,,
69307,104,2023-10-27_11h57.58.453,V2_E2,2022.2.5,Win32,59.99160118,108,283,pilot,,,,,s,0.5651,0,34,34,34,1,mamoru,Verb,to protect,098-mamoru.mp3,095-matomeru.mp3,-0.3,0,0.3,0,0.5,2.1,s,,,,,,,,,,,,,,,,,,,,
69307,104,2023-10-27_11h57.58.453,V2_E2,2022.2.5,Win32,59.99160118,108,283,pilot,,,,,k,1.2186,0,35,35,35,1,nukeru,Verb,to escape,086-nukeru.mp3,091-yomu.mp3,-0.3,0,0.3,0,0.5,2.1,s,,,,,,,,,,,,,,,,,,,,
69307,104,2023-10-27_11h57.58.453,V2_E2,2022.2.5,Win32,59.99160118,108,283,pilot,,,,,s,0.3663,0,36,36,36,1,kimazui,Adj,awkward,017-kimazui.mp3,006-betsuna.mp3,-0.3,0,0.3,0,0.5,2.1,s,,,,,,,,,,,,,,,,,,,,
69307,104,2023-10-27_11h57.58.453,V2_E2,2022.2.5,Win32,59.99160118,108,283,pilot,,,,,k,1.0605,0,37,37,37,1,mizu,Noun,water,060-mizu.mp3,063-namida.mp3,0.3,0,-0.3,0,2.1,0.5,k,,,,,,,,,,,,,,,,,,,,
69307,104,2023-10-27_11h57.58.453,V2_E2,2022.2.5,Win32,59.99160118,108,283,pilot,,,,,k,1.024,0,38,38,38,1,burari,Mim,wander,042-burari.mp3,026-karari.mp3,0.3,0,-0.3,0,2.1,0.5,k,,,,,,,,,,,,,,,,,,,,
69307,104,2023-10-27_11h57.58.453,V2_E2,2022.2.5,Win32,59.99160118,108,283,pilot,,,,,k,1.4851,0,39,39,39,1,furina,Adj,disadvantaged,008-furina.mp3,019-hiroi.mp3,-0.3,0,0.3,0,0.5,2.1,s,,,,,,,,,,,,,,,,,,,,
69307,104,2023-10-27_11h57.58.453,V2_E2,2022.2.5,Win32,59.99160118,108,283,pilot,,,,,k,0.4476,0,40,40,40,1,naritatsu,Verb,to consist,081-naritatsu.mp3,090-tsubuyaku.mp3,-0.3,0,0.3,0,0.5,2.1,s,,,,,,,,,,,,,,,,,,,,
69307,104,2023-10-27_11h57.58.453,V2_E2,2022.2.5,Win32,59.99160118,108,283,pilot,,,,,k,1.0957,0,41,41,41,1,Right,AttentionCheck,to trust,Check_Right.mp3,silence.mp3,0.3,0,-0.3,0,0.5,10,k,,,,,,,,,,,,,,,,,,,,
69307,104,2023-10-27_11h57.58.453,V2_E2,2022.2.5,Win32,59.99160118,108,283,pilot,,,,,k,1.4806,0,42,42,42,1,toboshii,Adj,poor,011-toboshii.mp3,018-tsuyoi.mp3,-0.3,0,0.3,0,0.5,2.1,s,,,,,,,,,,,,,,,,,,,,
69307,104,2023-10-27_11h57.58.453,V2_E2,2022.2.5,Win32,59.99160118,108,283,pilot,,,,,k,0.9079,0,43,43,43,1,busuri,Mim,sound of stabbing,035-busuri.mp3,034-goshagosha.mp3,-0.3,0,0.3,0,0.5,2.1,s,,,,,,,,,,,,,,,,,,,,
69307,104,2023-10-27_11h57.58.453,V2_E2,2022.2.5,Win32,59.99160118,108,283,pilot,,,,,k,0.8669,0,44,44,44,1,machigau,Verb,to wrong,082-machigau.mp3,076-yobu.mp3,0.3,0,-0.3,0,2.1,0.5,k,,,,,,,,,,,,,,,,,,,,
69307,104,2023-10-27_11h57.58.453,V2_E2,2022.2.5,Win32,59.99160118,108,283,pilot,,,,,k,0.4195,0,45,45,45,1,samui,Adj,cold,021-samui.mp3,025-marui.mp3,0.3,0,-0.3,0,2.1,0.5,k,,,,,,,,,,,,,,,,,,,,
69307,104,2023-10-27_11h57.58.453,V2_E2,2022.2.5,Win32,59.99160118,108,283,pilot,,,,,s,1.6163,0,46,46,46,1,tsuratsura,Mim,spontaneously,029-tsuratsura.mp3,041-chirochiro.mp3,-0.3,0,0.3,0,0.5,2.1,s,,,,,,,,,,,,,,,,,,,,
69307,104,2023-10-27_11h57.58.453,V2_E2,2022.2.5,Win32,59.99160118,108,283,pilot,,,,,k,1.2846,0,47,47,47,1,tochi,Noun,land,056-tochi.mp3,053-tsuma.mp3,-0.3,0,0.3,0,0.5,2.1,s,,,,,,,,,,,,,,,,,,,,
69307,104,2023-10-27_11h57.58.453,V2_E2,2022.2.5,Win32,59.99160118,108,283,pilot,,,,,s,0.8525,0,48,48,48,1,wasureru,Verb,to forget,085-wasureru.mp3,089-shiraberu.mp3,-0.3,0,0.3,0,0.5,2.1,s,,,,,,,,,,,,,,,,,,,,
69307,104,2023-10-27_11h57.58.453,V2_E2,2022.2.5,Win32,59.99160118,108,283,pilot,,,,,k,0.3012,0,49,49,49,1,kagiri,Noun,limit,061-kagiri.mp3,068-hitotsu.mp3,0.3,0,-0.3,0,2.1,0.5,k,,,,,,,,,,,,,,,,,,,,
69307,104,2023-10-27_11h57.58.453,V2_E2,2022.2.5,Win32,59.99160118,108,283,pilot,,,,,,,,,,,,,,,,,,,,,,,,33,right,0.6312,,,,,,,,,,,,,,,,,
69307,104,2023-10-27_11h57.58.453,V2_E2,2022.2.5,Win32,59.99160118,108,283,pilot,,,,,,,,,,,,,,,,,,,,,,,,,,,female,right,1.5342,,,,,,,,,,,,,,
69307,104,2023-10-27_11h57.58.453,V2_E2,2022.2.5,Win32,59.99160118,108,283,pilot,,,,,,,,,,,,,,,,,,,,,,,,,,,,,,english,right,1.5032,,,,,,,,,,,
69307,104,2023-10-27_11h57.58.453,V2_E2,2022.2.5,Win32,59.99160118,108,283,pilot,,,,,,,,,,,,,,,,,,,,,,,,,,,,,,,,,none,right,5.1597,,,,,,,,
69307,104,2023-10-27_11h57.58.453,V2_E2,2022.2.5,Win32,59.99160118,108,283,pilot,,,,,,,,,,,,,,,,,,,,,,,,,,,,,,,,,,,,1,5.4281,right,2.2993,,,,
69307,104,2023-10-27_11h57.58.453,V2_E2,2022.2.5,Win32,59.99160118,108,283,pilot,,,,,,,,,,,,,,,,,,,,,,,,,,,,,,,,,,,,,,,,1,1.6621,right,0.6526
﻿session,group,date,expName,psychopyVersion,OS,frameRate,participant,expt,status,key_resp_2.keys,key_resp_2.rt,key_resp_6.keys,key_resp_6.rt,key_resp_3.keys,key_resp_3.rt,trials.thisRepN,trials.thisTrialN,trials.thisN,trials.thisIndex,trials.ran,Word,WordClass,Definition,Target,Foil,TargetPositionX,TargetPositionY,FoilPositionX,FoilPositionY,TargetTime,FoilTime,CorrectKey,textbox.text,enter.keys,enter.rt,textbox_2.text,enter_2.keys,enter_2.rt,textbox_3.text,enter_3.keys,enter_3.rt,textbox_4.text,enter_4.keys,enter_4.rt,slider.response,slider.rt,key_resp_4.keys,key_resp_4.rt,slider_2.response,slider_2.rt,key_resp_5.keys,key_resp_5.rt
69308,71,2023-10-27_11h58.03.889,V2_E2,2022.2.5,Win32,59.87306909,109,283,pilot,,,,,,,,,,,,,,,,,,,,,,,,,,,,,,,,,,,,,,,,,,,
69308,71,2023-10-27_11h58.03.889,V2_E2,2022.2.5,Win32,59.87306909,109,283,pilot,s,56.7033,,,,,,,,,,,,,,,,,,,,,,,,,,,,,,,,,,,,,,,,,
69308,71,2023-10-27_11h58.03.889,V2_E2,2022.2.5,Win32,59.87306909,109,283,pilot,,,s,3.9109,,,,,,,,,,,,,,,,,,,,,,,,,,,,,,,,,,,,,,,
69308,71,2023-10-27_11h58.03.889,V2_E2,2022.2.5,Win32,59.87306909,109,283,pilot,,,,,s,1.7327,0,0,0,0,1,Left,AttentionCheck,to compare,Check_Left.mp3,silence.mp3,-0.3,0,0.3,0,0.5,10,s,,,,,,,,,,,,,,,,,,,,
69308,71,2023-10-27_11h58.03.889,V2_E2,2022.2.5,Win32,59.87306909,109,283,pilot,,,,,k,1.0512,0,1,1,1,1,wasureru,Verb,to forget,085-wasureru.mp3,083-miseru.mp3,0.3,0,-0.3,0,2.1,0.5,k,,,,,,,,,,,,,,,,,,,,
69308,71,2023-10-27_11h58.03.889,V2_E2,2022.2.5,Win32,59.87306909,109,283,pilot,,,,,s,1.4335,0,2,2,2,1,goshagosha,Mim,messy,034-goshagosha.mp3,040-kebakeba.mp3,0.3,0,-0.3,0,2.1,0.5,k,,,,,,,,,,,,,,,,,,,,
69308,71,2023-10-27_11h58.03.889,V2_E2,2022.2.5,Win32,59.87306909,109,283,pilot,,,,,k,2.3874,0,3,3,3,1,jimoto,Noun,local,058-jimoto.mp3,052-kako.mp3,-0.3,0,0.3,0,0.5,2.1,s,,,,,,,,,,,,,,,,,,,,
69308,71,2023-10-27_11h58.03.889,V2_E2,2022.2.5,Win32,59.87306909,109,283,pilot,,,,,k,1.0962,0,4,4,4,1,shinu,Verb,to die,092-shinu.mp3,097-hirogeru.mp3,0.3,0,-0.3,0,2.1,0.5,k,,,,,,,,,,,,,,,,,,,,
69308,71,2023-10-27_11h58.03.889,V2_E2,2022.2.5,Win32,59.87306909,109,283,pilot,,,,,s,1.1187,0,5,5,5,1,kuchi,Noun,mouth,067-kuchi.mp3,062-yume.mp3,-0.3,0,0.3,0,0.5,2.1,s,,,,,,,,,,,,,,,,,,,,
69308,71,2023-10-27_11h58.03.889,V2_E2,2022.2.5,Win32,59.87306909,109,283,pilot,,,,,k,1.1846,0,6,6,6,1,nemui,Adj,sleepy,024-nemui.mp3,001-hayamena.mp3,0.3,0,-0.3,0,2.1,0.5,k,,,,,,,,,,,,,,,,,,,,
